"stimulus","rt","response","phase","word","carrier","block","wordAccent","wordAccentStep","carrierAccent","carrierAccentStep","option_0","option_1","sound","trial_index","time_elapsed","participantID","answer"
"<h1>どちらの単語が聞こえましたか</h1>","740","1","practice","hana","deta","2","A","1","","","hanaA","hanaU","hanaA01-detaA01","4","5","classroom should anywhere fuel habit","hanaU"
"<h1>どちらの単語が聞こえましたか</h1>","603","0","practice","hana","deta","2","A","11","","","hanaA","hanaU","hanaA11-detaA11","6","5","classroom should anywhere fuel habit","hanaA"
"<h1>どちらの単語が聞こえましたか</h1>","738","1","practice","hana","deta","2","U","1","","","hanaA","hanaU","hanaU01-detaU01","8","5","classroom should anywhere fuel habit","hanaU"
"<h1>どちらの単語が聞こえましたか</h1>","511","1","practice","hana","deta","2","U","11","","","hanaA","hanaU","hanaU11-detaU11","10","6","classroom should anywhere fuel habit","hanaU"
"<h1>どちらの単語が聞こえましたか</h1>","913","0","practice","hana","deta","2","A","1","","","hanaA","hanaU","hanaA01-detaU01","13","6","classroom should anywhere fuel habit","hanaU"
"<h1>どちらの単語が聞こえましたか</h1>","739","1","practice","hana","deta","2","A","11","","","hanaA","hanaU","hanaA11-detaU11","15","6","classroom should anywhere fuel habit","hanaA"
"<h1>どちらの単語が聞こえましたか</h1>","452","0","practice","hana","deta","2","U","1","","","hanaA","hanaU","hanaU01-detaA01","17","7","classroom should anywhere fuel habit","hanaU"
"<h1>どちらの単語が聞こえましたか</h1>","541","0","practice","hana","deta","2","U","11","","","hanaA","hanaU","hanaU11-detaA11","19","7","classroom should anywhere fuel habit","hanaU"
"<h1>どちらの単語が聞こえましたか</h1>","660","1","iden_exp","hana","deta","1","A","11","U","7","hanaA","hanaA","hanaA11-detaU07","22","7","classroom should anywhere fuel habit","hanaA"
"<h1>どちらの単語が聞こえましたか</h1>","711","1","iden_exp","hana","deta","1","A","11","U","6","hanaA","hanaA","hanaA11-detaU06","24","7","classroom should anywhere fuel habit","hanaA"
"<h1>どちらの単語が聞こえましたか</h1>","659","0","iden_exp","hana","deta","1","A","3","U","11","hanaA","hanaA","hanaA03-detaU11","26","7","classroom should anywhere fuel habit","hanaA"
"<h1>どちらの単語が聞こえましたか</h1>","612","0","iden_exp","hana","deta","1","A","7","U","5","hanaA","hanaA","hanaA07-detaU05","28","7","classroom should anywhere fuel habit","hanaA"
"<h1>どちらの単語が聞こえましたか</h1>","679","0","iden_exp","hana","deta","1","U","5","U","9","hanaU","hanaU","hanaU05-detaU09","30","7","classroom should anywhere fuel habit","hanaU"
"<h1>どちらの単語が聞こえましたか</h1>","771","0","iden_exp","hana","deta","1","U","1","A","9","hanaU","hanaU","hanaU01-detaA09","32","7","classroom should anywhere fuel habit","hanaU"
"<h1>どちらの単語が聞こえましたか</h1>","436","1","iden_exp","hana","deta","1","U","7","A","1","hanaU","hanaU","hanaU07-detaA01","34","7","classroom should anywhere fuel habit","hanaU"
"<h1>どちらの単語が聞こえましたか</h1>","681","1","iden_exp","hana","deta","1","A","1","U","6","hanaA","hanaA","hanaA01-detaU06","36","8","classroom should anywhere fuel habit","hanaA"
"<h1>どちらの単語が聞こえましたか</h1>","688","0","iden_exp","hana","deta","1","U","9","A","7","hanaU","hanaU","hanaU09-detaA07","38","8","classroom should anywhere fuel habit","hanaU"
"<h1>どちらの単語が聞こえましたか</h1>","712","1","iden_exp","hana","deta","1","U","5","U","5","hanaU","hanaU","hanaU05-detaU05","40","8","classroom should anywhere fuel habit","hanaU"
"<h1>どちらの単語が聞こえましたか</h1>","850","1","iden_exp","hana","deta","1","U","1","U","9","hanaU","hanaU","hanaU01-detaU09","42","8","classroom should anywhere fuel habit","hanaU"
"<h1>どちらの単語が聞こえましたか</h1>","479","0","iden_exp","hana","deta","1","U","3","A","7","hanaU","hanaU","hanaU03-detaA07","44","8","classroom should anywhere fuel habit","hanaU"
"<h1>どちらの単語が聞こえましたか</h1>","697","1","iden_exp","hana","deta","1","A","7","A","1","hanaA","hanaU","hanaA07-detaA01","46","8","classroom should anywhere fuel habit","hanaU"
"<h1>どちらの単語が聞こえましたか</h1>","579","1","iden_exp","hana","deta","1","A","9","A","7","hanaA","hanaU","hanaA09-detaA07","48","8","classroom should anywhere fuel habit","hanaU"
"<h1>どちらの単語が聞こえましたか</h1>","465","1","iden_exp","hana","deta","1","U","7","A","7","hanaU","hanaU","hanaU07-detaA07","50","8","classroom should anywhere fuel habit","hanaU"
"<h1>どちらの単語が聞こえましたか</h1>","554","0","iden_exp","hana","deta","1","A","9","U","11","hanaA","hanaA","hanaA09-detaU11","52","8","classroom should anywhere fuel habit","hanaA"
"<h1>どちらの単語が聞こえましたか</h1>","623","0","iden_exp","hana","deta","1","U","7","U","5","hanaU","hanaU","hanaU07-detaU05","54","8","classroom should anywhere fuel habit","hanaU"
"<h1>どちらの単語が聞こえましたか</h1>","553","0","iden_exp","hana","deta","1","A","3","A","1","hanaA","hanaU","hanaA03-detaA01","56","8","classroom should anywhere fuel habit","hanaA"
"<h1>どちらの単語が聞こえましたか</h1>","589","1","iden_exp","hana","deta","1","A","3","A","3","hanaA","hanaU","hanaA03-detaA03","58","8","classroom should anywhere fuel habit","hanaU"
"<h1>どちらの単語が聞こえましたか</h1>","627","1","iden_exp","hana","deta","1","A","3","A","6","hanaA","hanaU","hanaA03-detaA06","60","8","classroom should anywhere fuel habit","hanaU"
"<h1>どちらの単語が聞こえましたか</h1>","606","1","iden_exp","hana","deta","1","U","9","U","5","hanaU","hanaU","hanaU09-detaU05","62","9","classroom should anywhere fuel habit","hanaU"
"<h1>どちらの単語が聞こえましたか</h1>","671","0","iden_exp","hana","deta","1","A","11","A","11","hanaA","hanaU","hanaA11-detaA11","64","9","classroom should anywhere fuel habit","hanaA"
"<h1>どちらの単語が聞こえましたか</h1>","695","1","iden_exp","hana","deta","1","U","3","U","7","hanaU","hanaU","hanaU03-detaU07","66","9","classroom should anywhere fuel habit","hanaU"
"<h1>どちらの単語が聞こえましたか</h1>","833","1","iden_exp","hana","deta","1","A","7","U","3","hanaA","hanaA","hanaA07-detaU03","68","9","classroom should anywhere fuel habit","hanaA"
"<h1>どちらの単語が聞こえましたか</h1>","604","0","iden_exp","hana","deta","1","U","1","U","1","hanaU","hanaU","hanaU01-detaU01","70","9","classroom should anywhere fuel habit","hanaU"
"<h1>どちらの単語が聞こえましたか</h1>","560","1","iden_exp","hana","deta","1","U","9","A","1","hanaU","hanaU","hanaU09-detaA01","72","10","classroom should anywhere fuel habit","hanaU"
"<h1>どちらの単語が聞こえましたか</h1>","731","0","iden_exp","hana","deta","1","U","5","U","7","hanaU","hanaU","hanaU05-detaU07","74","11","classroom should anywhere fuel habit","hanaU"
"<h1>どちらの単語が聞こえましたか</h1>","1349","0","iden_exp","hana","deta","1","U","3","A","11","hanaU","hanaU","hanaU03-detaA11","76","11","classroom should anywhere fuel habit","hanaU"
"<h1>どちらの単語が聞こえましたか</h1>","599","0","iden_exp","hana","deta","1","U","11","A","1","hanaU","hanaU","hanaU11-detaA01","78","11","classroom should anywhere fuel habit","hanaU"
"<h1>どちらの単語が聞こえましたか</h1>","723","0","iden_exp","hana","deta","1","A","5","A","1","hanaA","hanaU","hanaA05-detaA01","80","12","classroom should anywhere fuel habit","hanaA"
"<h1>どちらの単語が聞こえましたか</h1>","680","0","iden_exp","hana","deta","1","U","3","U","3","hanaU","hanaU","hanaU03-detaU03","82","12","classroom should anywhere fuel habit","hanaU"
"<h1>どちらの単語が聞こえましたか</h1>","531","1","iden_exp","hana","deta","1","U","5","U","11","hanaU","hanaU","hanaU05-detaU11","84","12","classroom should anywhere fuel habit","hanaU"
"<h1>どちらの単語が聞こえましたか</h1>","561","0","iden_exp","hana","deta","1","A","1","U","7","hanaA","hanaA","hanaA01-detaU07","86","12","classroom should anywhere fuel habit","hanaA"
"<h1>どちらの単語が聞こえましたか</h1>","510","0","iden_exp","hana","deta","1","U","1","U","11","hanaU","hanaU","hanaU01-detaU11","88","12","classroom should anywhere fuel habit","hanaU"
"<h1>どちらの単語が聞こえましたか</h1>","700","1","iden_exp","hana","deta","1","A","9","U","3","hanaA","hanaA","hanaA09-detaU03","90","12","classroom should anywhere fuel habit","hanaA"
"<h1>どちらの単語が聞こえましたか</h1>","509","1","iden_exp","hana","deta","1","U","6","A","5","hanaU","hanaU","hanaU06-detaA05","92","12","classroom should anywhere fuel habit","hanaU"
"<h1>どちらの単語が聞こえましたか</h1>","590","1","iden_exp","hana","deta","1","A","5","U","9","hanaA","hanaA","hanaA05-detaU09","94","12","classroom should anywhere fuel habit","hanaA"
"<h1>どちらの単語が聞こえましたか</h1>","457","1","iden_exp","hana","deta","1","A","5","U","6","hanaA","hanaA","hanaA05-detaU06","96","12","classroom should anywhere fuel habit","hanaA"
"<h1>どちらの単語が聞こえましたか</h1>","1117","1","iden_exp","hana","deta","1","A","1","U","1","hanaA","hanaA","hanaA01-detaU01","98","12","classroom should anywhere fuel habit","hanaA"
"<h1>どちらの単語が聞こえましたか</h1>","526","1","iden_exp","hana","deta","1","A","7","U","11","hanaA","hanaA","hanaA07-detaU11","100","12","classroom should anywhere fuel habit","hanaA"
"<h1>どちらの単語が聞こえましたか</h1>","640","1","iden_exp","hana","deta","1","U","6","A","7","hanaU","hanaU","hanaU06-detaA07","102","12","classroom should anywhere fuel habit","hanaU"
"<h1>どちらの単語が聞こえましたか</h1>","779","1","iden_exp","hana","deta","1","A","11","A","6","hanaA","hanaU","hanaA11-detaA06","104","13","classroom should anywhere fuel habit","hanaU"
"<h1>どちらの単語が聞こえましたか</h1>","612","1","iden_exp","hana","deta","1","A","6","U","3","hanaA","hanaA","hanaA06-detaU03","106","13","classroom should anywhere fuel habit","hanaA"
"<h1>どちらの単語が聞こえましたか</h1>","1064","1","iden_exp","hana","deta","1","U","1","A","1","hanaU","hanaU","hanaU01-detaA01","108","13","classroom should anywhere fuel habit","hanaU"
"<h1>どちらの単語が聞こえましたか</h1>","494","1","iden_exp","hana","deta","1","U","5","U","6","hanaU","hanaU","hanaU05-detaU06","110","13","classroom should anywhere fuel habit","hanaU"
"<h1>どちらの単語が聞こえましたか</h1>","512","1","iden_exp","hana","deta","1","U","11","A","9","hanaU","hanaU","hanaU11-detaA09","112","13","classroom should anywhere fuel habit","hanaU"
"<h1>どちらの単語が聞こえましたか</h1>","781","0","iden_exp","hana","deta","1","U","9","U","11","hanaU","hanaU","hanaU09-detaU11","114","13","classroom should anywhere fuel habit","hanaU"
"<h1>どちらの単語が聞こえましたか</h1>","666","1","iden_exp","hana","deta","1","A","3","U","9","hanaA","hanaA","hanaA03-detaU09","116","13","classroom should anywhere fuel habit","hanaA"
"<h1>どちらの単語が聞こえましたか</h1>","542","1","iden_exp","hana","deta","1","A","9","A","1","hanaA","hanaU","hanaA09-detaA01","118","13","classroom should anywhere fuel habit","hanaU"
"<h1>どちらの単語が聞こえましたか</h1>","434","0","iden_exp","hana","deta","1","U","9","U","9","hanaU","hanaU","hanaU09-detaU09","120","13","classroom should anywhere fuel habit","hanaU"
"<h1>どちらの単語が聞こえましたか</h1>","534","1","iden_exp","hana","deta","1","A","5","A","7","hanaA","hanaU","hanaA05-detaA07","122","13","classroom should anywhere fuel habit","hanaU"
"<h1>どちらの単語が聞こえましたか</h1>","437","0","iden_exp","hana","deta","1","A","1","U","9","hanaA","hanaA","hanaA01-detaU09","124","13","classroom should anywhere fuel habit","hanaA"
"<h1>どちらの単語が聞こえましたか</h1>","479","1","iden_exp","hana","deta","1","A","1","A","3","hanaA","hanaU","hanaA01-detaA03","126","14","classroom should anywhere fuel habit","hanaU"
"<h1>どちらの単語が聞こえましたか</h1>","838","0","iden_exp","hana","deta","1","A","11","A","1","hanaA","hanaU","hanaA11-detaA01","128","14","classroom should anywhere fuel habit","hanaA"
"<h1>どちらの単語が聞こえましたか</h1>","377","0","iden_exp","hana","deta","1","A","7","U","6","hanaA","hanaA","hanaA07-detaU06","130","14","classroom should anywhere fuel habit","hanaA"
"<h1>どちらの単語が聞こえましたか</h1>","754","1","iden_exp","hana","deta","1","U","11","A","6","hanaU","hanaU","hanaU11-detaA06","132","14","classroom should anywhere fuel habit","hanaU"
"<h1>どちらの単語が聞こえましたか</h1>","665","0","iden_exp","hana","deta","1","U","1","U","5","hanaU","hanaU","hanaU01-detaU05","134","14","classroom should anywhere fuel habit","hanaU"
"<h1>どちらの単語が聞こえましたか</h1>","953","1","iden_exp","hana","deta","1","A","6","A","5","hanaA","hanaU","hanaA06-detaA05","136","14","classroom should anywhere fuel habit","hanaU"
"<h1>どちらの単語が聞こえましたか</h1>","977","0","iden_exp","hana","deta","1","U","7","U","7","hanaU","hanaU","hanaU07-detaU07","138","14","classroom should anywhere fuel habit","hanaU"
"<h1>どちらの単語が聞こえましたか</h1>","730","1","iden_exp","hana","deta","1","A","1","A","1","hanaA","hanaU","hanaA01-detaA01","140","14","classroom should anywhere fuel habit","hanaU"
"<h1>どちらの単語が聞こえましたか</h1>","497","0","iden_exp","hana","deta","1","A","1","A","7","hanaA","hanaU","hanaA01-detaA07","142","14","classroom should anywhere fuel habit","hanaA"
"<h1>どちらの単語が聞こえましたか</h1>","520","0","iden_exp","hana","deta","1","A","7","U","1","hanaA","hanaA","hanaA07-detaU01","144","14","classroom should anywhere fuel habit","hanaA"
"<h1>どちらの単語が聞こえましたか</h1>","688","0","iden_exp","hana","deta","1","A","11","U","1","hanaA","hanaA","hanaA11-detaU01","146","14","classroom should anywhere fuel habit","hanaA"
"<h1>どちらの単語が聞こえましたか</h1>","674","1","iden_exp","hana","deta","1","U","5","A","7","hanaU","hanaU","hanaU05-detaA07","148","15","classroom should anywhere fuel habit","hanaU"
"<h1>どちらの単語が聞こえましたか</h1>","590","1","iden_exp","hana","deta","1","A","9","U","1","hanaA","hanaA","hanaA09-detaU01","150","15","classroom should anywhere fuel habit","hanaA"
"<h1>どちらの単語が聞こえましたか</h1>","625","0","iden_exp","hana","deta","1","A","6","A","9","hanaA","hanaU","hanaA06-detaA09","152","15","classroom should anywhere fuel habit","hanaA"
"<h1>どちらの単語が聞こえましたか</h1>","501","0","iden_exp","hana","deta","1","A","5","U","3","hanaA","hanaA","hanaA05-detaU03","154","15","classroom should anywhere fuel habit","hanaA"
"<h1>どちらの単語が聞こえましたか</h1>","786","1","iden_exp","hana","deta","1","A","1","A","11","hanaA","hanaU","hanaA01-detaA11","156","15","classroom should anywhere fuel habit","hanaU"
"<h1>どちらの単語が聞こえましたか</h1>","544","0","iden_exp","hana","deta","1","U","5","A","5","hanaU","hanaU","hanaU05-detaA05","158","15","classroom should anywhere fuel habit","hanaU"
"<h1>どちらの単語が聞こえましたか</h1>","742","1","iden_exp","hana","deta","1","U","6","U","6","hanaU","hanaU","hanaU06-detaU06","160","15","classroom should anywhere fuel habit","hanaU"
"<h1>どちらの単語が聞こえましたか</h1>","636","1","iden_exp","hana","deta","1","A","5","U","1","hanaA","hanaA","hanaA05-detaU01","162","15","classroom should anywhere fuel habit","hanaA"
"<h1>どちらの単語が聞こえましたか</h1>","529","0","iden_exp","hana","deta","1","A","5","U","11","hanaA","hanaA","hanaA05-detaU11","164","15","classroom should anywhere fuel habit","hanaA"
"<h1>どちらの単語が聞こえましたか</h1>","525","0","iden_exp","hana","deta","1","U","3","A","3","hanaU","hanaU","hanaU03-detaA03","166","15","classroom should anywhere fuel habit","hanaU"
"<h1>どちらの単語が聞こえましたか</h1>","980","1","iden_exp","hana","deta","1","A","5","U","7","hanaA","hanaA","hanaA05-detaU07","168","15","classroom should anywhere fuel habit","hanaA"
"<h1>どちらの単語が聞こえましたか</h1>","552","0","iden_exp","hana","deta","1","U","5","A","6","hanaU","hanaU","hanaU05-detaA06","170","15","classroom should anywhere fuel habit","hanaU"
"<h1>どちらの単語が聞こえましたか</h1>","1014","0","iden_exp","hana","deta","1","A","3","A","9","hanaA","hanaU","hanaA03-detaA09","172","15","classroom should anywhere fuel habit","hanaA"
"<h1>どちらの単語が聞こえましたか</h1>","948","0","iden_exp","hana","deta","1","U","9","U","7","hanaU","hanaU","hanaU09-detaU07","174","15","classroom should anywhere fuel habit","hanaU"
"<h1>どちらの単語が聞こえましたか</h1>","608","0","iden_exp","hana","deta","1","U","6","U","7","hanaU","hanaU","hanaU06-detaU07","176","16","classroom should anywhere fuel habit","hanaU"
"<h1>どちらの単語が聞こえましたか</h1>","513","0","iden_exp","hana","deta","1","A","11","U","3","hanaA","hanaA","hanaA11-detaU03","178","16","classroom should anywhere fuel habit","hanaA"
"<h1>どちらの単語が聞こえましたか</h1>","657","1","iden_exp","hana","deta","1","A","6","A","6","hanaA","hanaU","hanaA06-detaA06","180","16","classroom should anywhere fuel habit","hanaU"
"<h1>どちらの単語が聞こえましたか</h1>","637","1","iden_exp","hana","deta","1","U","6","U","1","hanaU","hanaU","hanaU06-detaU01","182","16","classroom should anywhere fuel habit","hanaU"
"<h1>どちらの単語が聞こえましたか</h1>","757","1","iden_exp","hana","deta","1","U","7","U","3","hanaU","hanaU","hanaU07-detaU03","184","16","classroom should anywhere fuel habit","hanaU"
"<h1>どちらの単語が聞こえましたか</h1>","786","1","iden_exp","hana","deta","1","A","3","U","6","hanaA","hanaA","hanaA03-detaU06","186","16","classroom should anywhere fuel habit","hanaA"
"<h1>どちらの単語が聞こえましたか</h1>","725","1","iden_exp","hana","deta","1","U","11","U","11","hanaU","hanaU","hanaU11-detaU11","188","16","classroom should anywhere fuel habit","hanaU"
"<h1>どちらの単語が聞こえましたか</h1>","653","1","iden_exp","hana","deta","1","U","6","U","5","hanaU","hanaU","hanaU06-detaU05","190","16","classroom should anywhere fuel habit","hanaU"
"<h1>どちらの単語が聞こえましたか</h1>","773","0","iden_exp","hana","deta","1","A","9","A","9","hanaA","hanaU","hanaA09-detaA09","192","16","classroom should anywhere fuel habit","hanaA"
"<h1>どちらの単語が聞こえましたか</h1>","849","0","iden_exp","hana","deta","1","U","5","U","3","hanaU","hanaU","hanaU05-detaU03","194","16","classroom should anywhere fuel habit","hanaU"
"<h1>どちらの単語が聞こえましたか</h1>","457","1","iden_exp","hana","deta","1","U","3","U","5","hanaU","hanaU","hanaU03-detaU05","196","16","classroom should anywhere fuel habit","hanaU"
"<h1>どちらの単語が聞こえましたか</h1>","691","1","iden_exp","hana","deta","1","A","5","A","3","hanaA","hanaU","hanaA05-detaA03","198","16","classroom should anywhere fuel habit","hanaU"
"<h1>どちらの単語が聞こえましたか</h1>","545","1","iden_exp","hana","deta","1","A","3","U","7","hanaA","hanaA","hanaA03-detaU07","200","16","classroom should anywhere fuel habit","hanaA"
"<h1>どちらの単語が聞こえましたか</h1>","681","0","iden_exp","hana","deta","1","U","3","A","6","hanaU","hanaU","hanaU03-detaA06","202","16","classroom should anywhere fuel habit","hanaU"
"<h1>どちらの単語が聞こえましたか</h1>","482","0","iden_exp","hana","deta","1","A","5","A","11","hanaA","hanaU","hanaA05-detaA11","204","17","classroom should anywhere fuel habit","hanaA"
"<h1>どちらの単語が聞こえましたか</h1>","519","1","iden_exp","hana","deta","1","U","11","U","7","hanaU","hanaU","hanaU11-detaU07","206","17","classroom should anywhere fuel habit","hanaU"
"<h1>どちらの単語が聞こえましたか</h1>","554","0","iden_exp","hana","deta","1","U","3","U","1","hanaU","hanaU","hanaU03-detaU01","208","17","classroom should anywhere fuel habit","hanaU"
"<h1>どちらの単語が聞こえましたか</h1>","630","0","iden_exp","hana","deta","1","U","1","U","6","hanaU","hanaU","hanaU01-detaU06","210","17","classroom should anywhere fuel habit","hanaU"
"<h1>どちらの単語が聞こえましたか</h1>","771","1","iden_exp","hana","deta","1","A","5","A","6","hanaA","hanaU","hanaA05-detaA06","212","17","classroom should anywhere fuel habit","hanaU"
"<h1>どちらの単語が聞こえましたか</h1>","662","0","iden_exp","hana","deta","1","A","1","A","9","hanaA","hanaU","hanaA01-detaA09","214","17","classroom should anywhere fuel habit","hanaA"
"<h1>どちらの単語が聞こえましたか</h1>","783","0","iden_exp","hana","deta","1","U","6","A","3","hanaU","hanaU","hanaU06-detaA03","216","17","classroom should anywhere fuel habit","hanaU"
"<h1>どちらの単語が聞こえましたか</h1>","666","1","iden_exp","hana","deta","1","A","9","U","5","hanaA","hanaA","hanaA09-detaU05","218","17","classroom should anywhere fuel habit","hanaA"
"<h1>どちらの単語が聞こえましたか</h1>","838","0","iden_exp","hana","deta","1","U","1","U","7","hanaU","hanaU","hanaU01-detaU07","220","17","classroom should anywhere fuel habit","hanaU"
"<h1>どちらの単語が聞こえましたか</h1>","664","0","iden_exp","hana","deta","1","U","7","A","5","hanaU","hanaU","hanaU07-detaA05","222","17","classroom should anywhere fuel habit","hanaU"
"<h1>どちらの単語が聞こえましたか</h1>","446","0","iden_exp","hana","deta","1","A","6","U","11","hanaA","hanaA","hanaA06-detaU11","224","17","classroom should anywhere fuel habit","hanaA"
"<h1>どちらの単語が聞こえましたか</h1>","697","1","iden_exp","hana","deta","1","U","7","A","6","hanaU","hanaU","hanaU07-detaA06","226","17","classroom should anywhere fuel habit","hanaU"
"<h1>どちらの単語が聞こえましたか</h1>","701","1","iden_exp","hana","deta","1","A","7","U","7","hanaA","hanaA","hanaA07-detaU07","228","17","classroom should anywhere fuel habit","hanaA"
"<h1>どちらの単語が聞こえましたか</h1>","522","1","iden_exp","hana","deta","1","U","7","A","9","hanaU","hanaU","hanaU07-detaA09","230","17","classroom should anywhere fuel habit","hanaU"
"<h1>どちらの単語が聞こえましたか</h1>","555","1","iden_exp","hana","deta","1","A","7","A","7","hanaA","hanaU","hanaA07-detaA07","232","18","classroom should anywhere fuel habit","hanaU"
"<h1>どちらの単語が聞こえましたか</h1>","628","0","iden_exp","hana","deta","1","A","9","A","5","hanaA","hanaU","hanaA09-detaA05","234","18","classroom should anywhere fuel habit","hanaA"
"<h1>どちらの単語が聞こえましたか</h1>","720","0","iden_exp","hana","deta","1","A","3","U","3","hanaA","hanaA","hanaA03-detaU03","236","18","classroom should anywhere fuel habit","hanaA"
"<h1>どちらの単語が聞こえましたか</h1>","946","1","iden_exp","hana","deta","1","U","7","A","11","hanaU","hanaU","hanaU07-detaA11","238","18","classroom should anywhere fuel habit","hanaU"
"<h1>どちらの単語が聞こえましたか</h1>","542","1","iden_exp","hana","deta","1","U","7","A","3","hanaU","hanaU","hanaU07-detaA03","240","18","classroom should anywhere fuel habit","hanaU"
"<h1>どちらの単語が聞こえましたか</h1>","905","1","iden_exp","hana","deta","1","U","3","U","6","hanaU","hanaU","hanaU03-detaU06","242","18","classroom should anywhere fuel habit","hanaU"
"<h1>どちらの単語が聞こえましたか</h1>","492","1","iden_exp","hana","deta","1","U","7","U","11","hanaU","hanaU","hanaU07-detaU11","244","18","classroom should anywhere fuel habit","hanaU"
"<h1>どちらの単語が聞こえましたか</h1>","651","1","iden_exp","hana","deta","1","U","1","A","5","hanaU","hanaU","hanaU01-detaA05","246","18","classroom should anywhere fuel habit","hanaU"
"<h1>どちらの単語が聞こえましたか</h1>","581","1","iden_exp","hana","deta","1","U","11","A","3","hanaU","hanaU","hanaU11-detaA03","248","18","classroom should anywhere fuel habit","hanaU"
"<h1>どちらの単語が聞こえましたか</h1>","636","1","iden_exp","hana","deta","1","A","3","U","1","hanaA","hanaA","hanaA03-detaU01","250","19","classroom should anywhere fuel habit","hanaA"
"<h1>どちらの単語が聞こえましたか</h1>","572","1","iden_exp","hana","deta","1","A","11","A","3","hanaA","hanaU","hanaA11-detaA03","252","19","classroom should anywhere fuel habit","hanaU"
"<h1>どちらの単語が聞こえましたか</h1>","581","0","iden_exp","hana","deta","1","U","11","A","7","hanaU","hanaU","hanaU11-detaA07","254","19","classroom should anywhere fuel habit","hanaU"
"<h1>どちらの単語が聞こえましたか</h1>","694","1","iden_exp","hana","deta","1","A","5","A","9","hanaA","hanaU","hanaA05-detaA09","256","19","classroom should anywhere fuel habit","hanaU"
"<h1>どちらの単語が聞こえましたか</h1>","1022","0","iden_exp","","","1","","","","","","","","258","19","classroom should anywhere fuel habit",""
"<h1>どちらの単語が聞こえましたか</h1>","436","0","iden_exp","hana","deta","1","U","11","U","9","hanaU","hanaU","hanaU11-detaU09","260","19","classroom should anywhere fuel habit","hanaU"
"<h1>どちらの単語が聞こえましたか</h1>","558","1","iden_exp","hana","deta","1","U","5","A","3","hanaU","hanaU","hanaU05-detaA03","262","19","classroom should anywhere fuel habit","hanaU"
"<h1>どちらの単語が聞こえましたか</h1>","492","0","iden_exp","hana","deta","1","A","9","A","6","hanaA","hanaU","hanaA09-detaA06","264","20","classroom should anywhere fuel habit","hanaA"
"<h1>どちらの単語が聞こえましたか</h1>","554","1","iden_exp","hana","deta","1","A","9","U","6","hanaA","hanaA","hanaA09-detaU06","266","20","classroom should anywhere fuel habit","hanaA"
"<h1>どちらの単語が聞こえましたか</h1>","1145","1","iden_exp","hana","deta","1","U","6","U","9","hanaU","hanaU","hanaU06-detaU09","268","20","classroom should anywhere fuel habit","hanaU"
"<h1>どちらの単語が聞こえましたか</h1>","465","1","iden_exp","hana","deta","1","A","6","A","1","hanaA","hanaU","hanaA06-detaA01","270","20","classroom should anywhere fuel habit","hanaU"
"<h1>どちらの単語が聞こえましたか</h1>","540","0","iden_exp","hana","deta","1","A","3","A","5","hanaA","hanaU","hanaA03-detaA05","272","20","classroom should anywhere fuel habit","hanaA"
"<h1>どちらの単語が聞こえましたか</h1>","675","1","iden_exp","hana","deta","1","A","6","U","6","hanaA","hanaA","hanaA06-detaU06","274","20","classroom should anywhere fuel habit","hanaA"
"<h1>どちらの単語が聞こえましたか</h1>","789","1","iden_exp","hana","deta","1","A","7","A","5","hanaA","hanaU","hanaA07-detaA05","276","20","classroom should anywhere fuel habit","hanaU"
"<h1>どちらの単語が聞こえましたか</h1>","575","1","iden_exp","hana","deta","1","U","6","A","1","hanaU","hanaU","hanaU06-detaA01","278","20","classroom should anywhere fuel habit","hanaU"
"<h1>どちらの単語が聞こえましたか</h1>","776","0","iden_exp","hana","deta","1","U","9","A","11","hanaU","hanaU","hanaU09-detaA11","280","20","classroom should anywhere fuel habit","hanaU"
"<h1>どちらの単語が聞こえましたか</h1>","526","0","iden_exp","hana","deta","1","U","9","A","3","hanaU","hanaU","hanaU09-detaA03","282","21","classroom should anywhere fuel habit","hanaU"
"<h1>どちらの単語が聞こえましたか</h1>","738","1","iden_exp","hana","deta","1","U","3","A","1","hanaU","hanaU","hanaU03-detaA01","284","21","classroom should anywhere fuel habit","hanaU"
"<h1>どちらの単語が聞こえましたか</h1>","503","1","iden_exp","hana","deta","1","U","9","A","5","hanaU","hanaU","hanaU09-detaA05","286","21","classroom should anywhere fuel habit","hanaU"
"<h1>どちらの単語が聞こえましたか</h1>","635","1","iden_exp","hana","deta","1","A","11","U","5","hanaA","hanaA","hanaA11-detaU05","288","21","classroom should anywhere fuel habit","hanaA"
"<h1>どちらの単語が聞こえましたか</h1>","611","1","iden_exp","hana","deta","1","A","1","A","5","hanaA","hanaU","hanaA01-detaA05","290","21","classroom should anywhere fuel habit","hanaU"
"<h1>どちらの単語が聞こえましたか</h1>","509","0","iden_exp","hana","deta","1","A","7","A","9","hanaA","hanaU","hanaA07-detaA09","292","21","classroom should anywhere fuel habit","hanaA"
"<h1>どちらの単語が聞こえましたか</h1>","737","0","iden_exp","hana","deta","1","A","7","A","6","hanaA","hanaU","hanaA07-detaA06","294","21","classroom should anywhere fuel habit","hanaA"
"<h1>どちらの単語が聞こえましたか</h1>","620","0","iden_exp","hana","deta","1","U","9","A","9","hanaU","hanaU","hanaU09-detaA09","296","21","classroom should anywhere fuel habit","hanaU"
"<h1>どちらの単語が聞こえましたか</h1>","563","0","iden_exp","hana","deta","1","A","9","A","11","hanaA","hanaU","hanaA09-detaA11","298","21","classroom should anywhere fuel habit","hanaA"
"<h1>どちらの単語が聞こえましたか</h1>","528","0","iden_exp","hana","deta","1","U","1","A","11","hanaU","hanaU","hanaU01-detaA11","300","21","classroom should anywhere fuel habit","hanaU"
"<h1>どちらの単語が聞こえましたか</h1>","577","1","iden_exp","hana","deta","1","U","5","A","1","hanaU","hanaU","hanaU05-detaA01","302","21","classroom should anywhere fuel habit","hanaU"
"<h1>どちらの単語が聞こえましたか</h1>","513","0","iden_exp","hana","deta","1","A","3","U","5","hanaA","hanaA","hanaA03-detaU05","304","21","classroom should anywhere fuel habit","hanaA"
"<h1>どちらの単語が聞こえましたか</h1>","592","0","iden_exp","hana","deta","1","U","3","A","9","hanaU","hanaU","hanaU03-detaA09","306","21","classroom should anywhere fuel habit","hanaU"
"<h1>どちらの単語が聞こえましたか</h1>","497","1","iden_exp","hana","deta","1","U","7","U","1","hanaU","hanaU","hanaU07-detaU01","308","21","classroom should anywhere fuel habit","hanaU"
"<h1>どちらの単語が聞こえましたか</h1>","777","1","iden_exp","hana","deta","1","A","9","U","9","hanaA","hanaA","hanaA09-detaU09","310","21","classroom should anywhere fuel habit","hanaA"
"<h1>どちらの単語が聞こえましたか</h1>","519","1","iden_exp","hana","deta","1","A","1","U","11","hanaA","hanaA","hanaA01-detaU11","312","22","classroom should anywhere fuel habit","hanaA"
"<h1>どちらの単語が聞こえましたか</h1>","556","1","iden_exp","hana","deta","1","U","5","A","9","hanaU","hanaU","hanaU05-detaA09","314","22","classroom should anywhere fuel habit","hanaU"
"<h1>どちらの単語が聞こえましたか</h1>","826","1","iden_exp","hana","deta","1","U","3","U","9","hanaU","hanaU","hanaU03-detaU09","316","22","classroom should anywhere fuel habit","hanaU"
"<h1>どちらの単語が聞こえましたか</h1>","579","1","iden_exp","hana","deta","1","U","5","U","1","hanaU","hanaU","hanaU05-detaU01","318","22","classroom should anywhere fuel habit","hanaU"
"<h1>どちらの単語が聞こえましたか</h1>","579","0","iden_exp","hana","deta","1","U","6","A","11","hanaU","hanaU","hanaU06-detaA11","320","22","classroom should anywhere fuel habit","hanaU"
"<h1>どちらの単語が聞こえましたか</h1>","652","1","iden_exp","hana","deta","1","U","6","U","11","hanaU","hanaU","hanaU06-detaU11","322","22","classroom should anywhere fuel habit","hanaU"
"<h1>どちらの単語が聞こえましたか</h1>","643","0","iden_exp","hana","deta","1","U","1","A","6","hanaU","hanaU","hanaU01-detaA06","324","22","classroom should anywhere fuel habit","hanaU"
"<h1>どちらの単語が聞こえましたか</h1>","660","0","iden_exp","hana","deta","1","U","7","U","9","hanaU","hanaU","hanaU07-detaU09","326","22","classroom should anywhere fuel habit","hanaU"
"<h1>どちらの単語が聞こえましたか</h1>","555","0","iden_exp","hana","deta","1","U","1","A","7","hanaU","hanaU","hanaU01-detaA07","328","22","classroom should anywhere fuel habit","hanaU"
"<h1>どちらの単語が聞こえましたか</h1>","711","0","iden_exp","hana","deta","1","U","3","A","5","hanaU","hanaU","hanaU03-detaA05","330","22","classroom should anywhere fuel habit","hanaU"
"<h1>どちらの単語が聞こえましたか</h1>","737","0","iden_exp","hana","deta","1","U","1","A","3","hanaU","hanaU","hanaU01-detaA03","332","22","classroom should anywhere fuel habit","hanaU"
"<h1>どちらの単語が聞こえましたか</h1>","539","1","iden_exp","hana","deta","1","U","6","U","3","hanaU","hanaU","hanaU06-detaU03","334","23","classroom should anywhere fuel habit","hanaU"
"<h1>どちらの単語が聞こえましたか</h1>","704","0","iden_exp","hana","deta","1","U","7","U","6","hanaU","hanaU","hanaU07-detaU06","336","23","classroom should anywhere fuel habit","hanaU"
"<h1>どちらの単語が聞こえましたか</h1>","534","1","iden_exp","hana","deta","1","A","1","A","6","hanaA","hanaU","hanaA01-detaA06","338","23","classroom should anywhere fuel habit","hanaU"
"<h1>どちらの単語が聞こえましたか</h1>","891","1","iden_exp","hana","deta","1","A","11","A","9","hanaA","hanaU","hanaA11-detaA09","340","23","classroom should anywhere fuel habit","hanaU"
"<h1>どちらの単語が聞こえましたか</h1>","596","0","iden_exp","hana","deta","1","U","11","U","6","hanaU","hanaU","hanaU11-detaU06","342","23","classroom should anywhere fuel habit","hanaU"
"<h1>どちらの単語が聞こえましたか</h1>","674","1","iden_exp","hana","deta","1","A","7","U","9","hanaA","hanaA","hanaA07-detaU09","344","23","classroom should anywhere fuel habit","hanaA"
"<h1>どちらの単語が聞こえましたか</h1>","681","0","iden_exp","hana","deta","1","A","6","U","7","hanaA","hanaA","hanaA06-detaU07","346","23","classroom should anywhere fuel habit","hanaA"
"<h1>どちらの単語が聞こえましたか</h1>","694","1","iden_exp","hana","deta","1","U","6","A","6","hanaU","hanaU","hanaU06-detaA06","348","23","classroom should anywhere fuel habit","hanaU"
"<h1>どちらの単語が聞こえましたか</h1>","598","0","iden_exp","hana","deta","1","A","1","U","3","hanaA","hanaA","hanaA01-detaU03","350","23","classroom should anywhere fuel habit","hanaA"
"<h1>どちらの単語が聞こえましたか</h1>","511","0","iden_exp","hana","deta","1","A","11","A","7","hanaA","hanaU","hanaA11-detaA07","352","23","classroom should anywhere fuel habit","hanaA"
"<h1>どちらの単語が聞こえましたか</h1>","886","1","iden_exp","hana","deta","1","A","11","A","5","hanaA","hanaU","hanaA11-detaA05","354","23","classroom should anywhere fuel habit","hanaU"
"<h1>どちらの単語が聞こえましたか</h1>","602","1","iden_exp","hana","deta","1","U","11","U","3","hanaU","hanaU","hanaU11-detaU03","356","23","classroom should anywhere fuel habit","hanaU"
"<h1>どちらの単語が聞こえましたか</h1>","932","0","iden_exp","hana","deta","1","A","6","U","5","hanaA","hanaA","hanaA06-detaU05","358","23","classroom should anywhere fuel habit","hanaA"
"<h1>どちらの単語が聞こえましたか</h1>","658","1","iden_exp","hana","deta","1","U","9","U","6","hanaU","hanaU","hanaU09-detaU06","360","23","classroom should anywhere fuel habit","hanaU"
"<h1>どちらの単語が聞こえましたか</h1>","556","0","iden_exp","hana","deta","1","U","11","U","5","hanaU","hanaU","hanaU11-detaU05","362","24","classroom should anywhere fuel habit","hanaU"
"<h1>どちらの単語が聞こえましたか</h1>","478","1","iden_exp","hana","deta","1","A","9","A","3","hanaA","hanaU","hanaA09-detaA03","364","24","classroom should anywhere fuel habit","hanaU"
"<h1>どちらの単語が聞こえましたか</h1>","768","0","iden_exp","hana","deta","1","U","11","U","1","hanaU","hanaU","hanaU11-detaU01","366","24","classroom should anywhere fuel habit","hanaU"
"<h1>どちらの単語が聞こえましたか</h1>","491","1","iden_exp","hana","deta","1","U","11","A","11","hanaU","hanaU","hanaU11-detaA11","368","24","classroom should anywhere fuel habit","hanaU"
"<h1>どちらの単語が聞こえましたか</h1>","506","1","iden_exp","hana","deta","1","U","9","U","3","hanaU","hanaU","hanaU09-detaU03","370","24","classroom should anywhere fuel habit","hanaU"
"<h1>どちらの単語が聞こえましたか</h1>","687","1","iden_exp","hana","deta","1","A","7","A","3","hanaA","hanaU","hanaA07-detaA03","372","24","classroom should anywhere fuel habit","hanaU"
"<h1>どちらの単語が聞こえましたか</h1>","594","0","iden_exp","hana","deta","1","U","11","A","5","hanaU","hanaU","hanaU11-detaA05","374","24","classroom should anywhere fuel habit","hanaU"
"<h1>どちらの単語が聞こえましたか</h1>","642","1","iden_exp","hana","deta","1","A","9","U","7","hanaA","hanaA","hanaA09-detaU07","376","24","classroom should anywhere fuel habit","hanaA"
"<h1>どちらの単語が聞こえましたか</h1>","538","1","iden_exp","hana","deta","1","U","5","A","11","hanaU","hanaU","hanaU05-detaA11","378","24","classroom should anywhere fuel habit","hanaU"
"<h1>どちらの単語が聞こえましたか</h1>","715","1","iden_exp","hana","deta","1","U","9","A","6","hanaU","hanaU","hanaU09-detaA06","380","24","classroom should anywhere fuel habit","hanaU"
"<h1>どちらの単語が聞こえましたか</h1>","461","1","iden_exp","hana","deta","1","A","3","A","11","hanaA","hanaU","hanaA03-detaA11","382","24","classroom should anywhere fuel habit","hanaU"
"<h1>どちらの単語が聞こえましたか</h1>","878","0","iden_exp","hana","deta","1","A","7","A","11","hanaA","hanaU","hanaA07-detaA11","384","24","classroom should anywhere fuel habit","hanaA"
"<h1>どちらの単語が聞こえましたか</h1>","807","1","iden_exp","hana","deta","1","U","9","U","1","hanaU","hanaU","hanaU09-detaU01","386","24","classroom should anywhere fuel habit","hanaU"
"<h1>どちらの単語が聞こえましたか</h1>","959","1","iden_exp","hana","deta","1","A","6","U","1","hanaA","hanaA","hanaA06-detaU01","388","25","classroom should anywhere fuel habit","hanaA"
"<h1>どちらの単語が聞こえましたか</h1>","470","0","iden_exp","hana","deta","1","U","3","U","11","hanaU","hanaU","hanaU03-detaU11","390","25","classroom should anywhere fuel habit","hanaU"
"<h1>どちらの単語が聞こえましたか</h1>","997","0","iden_exp","hana","deta","1","A","11","U","9","hanaA","hanaA","hanaA11-detaU09","392","25","classroom should anywhere fuel habit","hanaA"
"<h1>どちらの単語が聞こえましたか</h1>","614","1","iden_exp","hana","deta","1","A","6","A","11","hanaA","hanaU","hanaA06-detaA11","394","25","classroom should anywhere fuel habit","hanaU"
"<h1>どちらの単語が聞こえましたか</h1>","634","1","iden_exp","hana","deta","1","A","5","A","5","hanaA","hanaU","hanaA05-detaA05","396","25","classroom should anywhere fuel habit","hanaU"
"<h1>どちらの単語が聞こえましたか</h1>","827","1","iden_exp","hana","deta","1","A","5","U","5","hanaA","hanaA","hanaA05-detaU05","398","25","classroom should anywhere fuel habit","hanaA"
"<h1>どちらの単語が聞こえましたか</h1>","436","0","iden_exp","hana","deta","1","A","6","U","9","hanaA","hanaA","hanaA06-detaU09","400","25","classroom should anywhere fuel habit","hanaA"
"<h1>どちらの単語が聞こえましたか</h1>","492","1","iden_exp","hana","deta","1","A","6","A","3","hanaA","hanaU","hanaA06-detaA03","402","25","classroom should anywhere fuel habit","hanaU"
"<h1>どちらの単語が聞こえましたか</h1>","717","1","iden_exp","hana","deta","1","U","1","U","3","hanaU","hanaU","hanaU01-detaU03","404","25","classroom should anywhere fuel habit","hanaU"
"<h1>どちらの単語が聞こえましたか</h1>","692","1","iden_exp","hana","deta","1","A","6","A","7","hanaA","hanaU","hanaA06-detaA07","406","25","classroom should anywhere fuel habit","hanaU"
"<h1>どちらの単語が聞こえましたか</h1>","1184","1","iden_exp","hana","deta","1","A","3","A","7","hanaA","hanaU","hanaA03-detaA07","408","25","classroom should anywhere fuel habit","hanaU"
"<h1>どちらの単語が聞こえましたか</h1>","642","1","iden_exp","hana","deta","1","A","11","U","11","hanaA","hanaA","hanaA11-detaU11","410","25","classroom should anywhere fuel habit","hanaA"
"<h1>どちらの単語が聞こえましたか</h1>","584","0","iden_exp","hana","deta","1","A","1","U","5","hanaA","hanaA","hanaA01-detaU05","412","25","classroom should anywhere fuel habit","hanaA"
"<h1>どちらの単語が聞こえましたか</h1>","622","1","iden_exp","hana","deta","1","U","6","A","9","hanaU","hanaU","hanaU06-detaA09","414","26","classroom should anywhere fuel habit","hanaU"
"<h1>どちらの単語が聞こえましたか</h1>","552","0","iden_exp","hana","deta","2","A","11","A","5","hanaA","hanaU","hanaA11-detaA05","417","26","classroom should anywhere fuel habit","hanaU"
"<h1>どちらの単語が聞こえましたか</h1>","1144","0","iden_exp","hana","deta","2","U","1","U","5","hanaU","hanaU","hanaU01-detaU05","419","26","classroom should anywhere fuel habit","hanaU"
"<h1>どちらの単語が聞こえましたか</h1>","847","0","iden_exp","hana","deta","2","A","9","U","11","hanaA","hanaA","hanaA09-detaU11","421","26","classroom should anywhere fuel habit","hanaA"
"<h1>どちらの単語が聞こえましたか</h1>","630","1","iden_exp","hana","deta","2","A","7","U","11","hanaA","hanaA","hanaA07-detaU11","423","26","classroom should anywhere fuel habit","hanaA"
"<h1>どちらの単語が聞こえましたか</h1>","487","1","iden_exp","hana","deta","2","U","7","U","11","hanaU","hanaU","hanaU07-detaU11","425","26","classroom should anywhere fuel habit","hanaU"
"<h1>どちらの単語が聞こえましたか</h1>","685","1","iden_exp","hana","deta","2","A","1","A","5","hanaA","hanaU","hanaA01-detaA05","427","26","classroom should anywhere fuel habit","hanaA"
"<h1>どちらの単語が聞こえましたか</h1>","795","0","iden_exp","hana","deta","2","U","1","A","3","hanaU","hanaU","hanaU01-detaA03","429","26","classroom should anywhere fuel habit","hanaU"
"<h1>どちらの単語が聞こえましたか</h1>","658","0","iden_exp","hana","deta","2","A","11","U","7","hanaA","hanaA","hanaA11-detaU07","431","26","classroom should anywhere fuel habit","hanaA"
"<h1>どちらの単語が聞こえましたか</h1>","658","1","iden_exp","hana","deta","2","U","1","A","5","hanaU","hanaU","hanaU01-detaA05","433","26","classroom should anywhere fuel habit","hanaU"
"<h1>どちらの単語が聞こえましたか</h1>","543","0","iden_exp","hana","deta","2","U","5","U","7","hanaU","hanaU","hanaU05-detaU07","435","27","classroom should anywhere fuel habit","hanaU"
"<h1>どちらの単語が聞こえましたか</h1>","771","1","iden_exp","hana","deta","2","U","6","U","1","hanaU","hanaU","hanaU06-detaU01","437","27","classroom should anywhere fuel habit","hanaU"
"<h1>どちらの単語が聞こえましたか</h1>","656","0","iden_exp","hana","deta","2","A","1","U","6","hanaA","hanaA","hanaA01-detaU06","439","27","classroom should anywhere fuel habit","hanaA"
"<h1>どちらの単語が聞こえましたか</h1>","826","1","iden_exp","hana","deta","2","A","6","U","6","hanaA","hanaA","hanaA06-detaU06","441","28","classroom should anywhere fuel habit","hanaA"
"<h1>どちらの単語が聞こえましたか</h1>","619","0","iden_exp","hana","deta","2","U","11","A","3","hanaU","hanaU","hanaU11-detaA03","443","28","classroom should anywhere fuel habit","hanaU"
"<h1>どちらの単語が聞こえましたか</h1>","535","0","iden_exp","hana","deta","2","U","5","U","5","hanaU","hanaU","hanaU05-detaU05","445","28","classroom should anywhere fuel habit","hanaU"
"<h1>どちらの単語が聞こえましたか</h1>","656","1","iden_exp","hana","deta","2","A","3","U","11","hanaA","hanaA","hanaA03-detaU11","447","28","classroom should anywhere fuel habit","hanaA"
"<h1>どちらの単語が聞こえましたか</h1>","920","1","iden_exp","hana","deta","2","A","3","A","5","hanaA","hanaU","hanaA03-detaA05","449","28","classroom should anywhere fuel habit","hanaA"
"<h1>どちらの単語が聞こえましたか</h1>","583","0","iden_exp","hana","deta","2","U","6","U","5","hanaU","hanaU","hanaU06-detaU05","451","28","classroom should anywhere fuel habit","hanaU"
"<h1>どちらの単語が聞こえましたか</h1>","473","0","iden_exp","hana","deta","2","A","7","U","7","hanaA","hanaA","hanaA07-detaU07","453","28","classroom should anywhere fuel habit","hanaA"
"<h1>どちらの単語が聞こえましたか</h1>","676","0","iden_exp","hana","deta","2","A","3","A","11","hanaA","hanaU","hanaA03-detaA11","455","28","classroom should anywhere fuel habit","hanaU"
"<h1>どちらの単語が聞こえましたか</h1>","575","0","iden_exp","hana","deta","2","U","1","U","1","hanaU","hanaU","hanaU01-detaU01","457","28","classroom should anywhere fuel habit","hanaU"
"<h1>どちらの単語が聞こえましたか</h1>","534","1","iden_exp","hana","deta","2","A","9","A","9","hanaA","hanaU","hanaA09-detaA09","459","29","classroom should anywhere fuel habit","hanaA"
"<h1>どちらの単語が聞こえましたか</h1>","537","1","iden_exp","hana","deta","2","A","9","A","1","hanaA","hanaU","hanaA09-detaA01","461","29","classroom should anywhere fuel habit","hanaA"
"<h1>どちらの単語が聞こえましたか</h1>","561","1","iden_exp","hana","deta","2","U","6","A","11","hanaU","hanaU","hanaU06-detaA11","463","29","classroom should anywhere fuel habit","hanaU"
"<h1>どちらの単語が聞こえましたか</h1>","666","0","iden_exp","hana","deta","2","A","6","A","7","hanaA","hanaU","hanaA06-detaA07","465","29","classroom should anywhere fuel habit","hanaU"
"<h1>どちらの単語が聞こえましたか</h1>","627","1","iden_exp","hana","deta","2","A","6","U","9","hanaA","hanaA","hanaA06-detaU09","467","29","classroom should anywhere fuel habit","hanaA"
"<h1>どちらの単語が聞こえましたか</h1>","447","1","iden_exp","hana","deta","2","U","5","U","9","hanaU","hanaU","hanaU05-detaU09","469","29","classroom should anywhere fuel habit","hanaU"
"<h1>どちらの単語が聞こえましたか</h1>","1000","0","iden_exp","hana","deta","2","A","9","U","5","hanaA","hanaA","hanaA09-detaU05","471","29","classroom should anywhere fuel habit","hanaA"
"<h1>どちらの単語が聞こえましたか</h1>","594","0","iden_exp","hana","deta","2","A","5","U","5","hanaA","hanaA","hanaA05-detaU05","473","29","classroom should anywhere fuel habit","hanaA"
"<h1>どちらの単語が聞こえましたか</h1>","484","0","iden_exp","hana","deta","2","U","9","A","1","hanaU","hanaU","hanaU09-detaA01","475","29","classroom should anywhere fuel habit","hanaU"
"<h1>どちらの単語が聞こえましたか</h1>","680","1","iden_exp","hana","deta","2","A","7","A","1","hanaA","hanaU","hanaA07-detaA01","477","29","classroom should anywhere fuel habit","hanaA"
"<h1>どちらの単語が聞こえましたか</h1>","528","0","iden_exp","hana","deta","2","U","3","A","1","hanaU","hanaU","hanaU03-detaA01","479","29","classroom should anywhere fuel habit","hanaU"
"<h1>どちらの単語が聞こえましたか</h1>","889","0","iden_exp","hana","deta","2","A","5","U","9","hanaA","hanaA","hanaA05-detaU09","481","29","classroom should anywhere fuel habit","hanaA"
"<h1>どちらの単語が聞こえましたか</h1>","604","0","iden_exp","hana","deta","2","A","1","A","3","hanaA","hanaU","hanaA01-detaA03","483","29","classroom should anywhere fuel habit","hanaU"
"<h1>どちらの単語が聞こえましたか</h1>","667","0","iden_exp","hana","deta","2","A","5","U","6","hanaA","hanaA","hanaA05-detaU06","485","29","classroom should anywhere fuel habit","hanaA"
"<h1>どちらの単語が聞こえましたか</h1>","718","0","iden_exp","hana","deta","2","A","3","A","7","hanaA","hanaU","hanaA03-detaA07","487","29","classroom should anywhere fuel habit","hanaU"
"<h1>どちらの単語が聞こえましたか</h1>","597","1","iden_exp","hana","deta","2","A","3","U","9","hanaA","hanaA","hanaA03-detaU09","489","29","classroom should anywhere fuel habit","hanaA"
"<h1>どちらの単語が聞こえましたか</h1>","706","0","iden_exp","hana","deta","2","A","6","U","3","hanaA","hanaA","hanaA06-detaU03","491","30","classroom should anywhere fuel habit","hanaA"
"<h1>どちらの単語が聞こえましたか</h1>","1214","0","iden_exp","hana","deta","2","U","11","A","5","hanaU","hanaU","hanaU11-detaA05","493","30","classroom should anywhere fuel habit","hanaU"
"<h1>どちらの単語が聞こえましたか</h1>","476","1","iden_exp","hana","deta","2","U","7","U","1","hanaU","hanaU","hanaU07-detaU01","495","30","classroom should anywhere fuel habit","hanaU"
"<h1>どちらの単語が聞こえましたか</h1>","504","0","iden_exp","hana","deta","2","A","11","A","1","hanaA","hanaU","hanaA11-detaA01","497","30","classroom should anywhere fuel habit","hanaU"
"<h1>どちらの単語が聞こえましたか</h1>","548","0","iden_exp","hana","deta","2","A","9","U","7","hanaA","hanaA","hanaA09-detaU07","499","30","classroom should anywhere fuel habit","hanaA"
"<h1>どちらの単語が聞こえましたか</h1>","568","1","iden_exp","hana","deta","2","A","9","A","3","hanaA","hanaU","hanaA09-detaA03","501","30","classroom should anywhere fuel habit","hanaA"
"<h1>どちらの単語が聞こえましたか</h1>","737","0","iden_exp","hana","deta","2","A","3","A","9","hanaA","hanaU","hanaA03-detaA09","503","30","classroom should anywhere fuel habit","hanaU"
"<h1>どちらの単語が聞こえましたか</h1>","797","1","iden_exp","hana","deta","2","U","3","A","5","hanaU","hanaU","hanaU03-detaA05","505","30","classroom should anywhere fuel habit","hanaU"
"<h1>どちらの単語が聞こえましたか</h1>","593","1","iden_exp","hana","deta","2","U","9","U","1","hanaU","hanaU","hanaU09-detaU01","507","30","classroom should anywhere fuel habit","hanaU"
"<h1>どちらの単語が聞こえましたか</h1>","663","1","iden_exp","hana","deta","2","U","5","U","3","hanaU","hanaU","hanaU05-detaU03","509","30","classroom should anywhere fuel habit","hanaU"
"<h1>どちらの単語が聞こえましたか</h1>","729","1","iden_exp","hana","deta","2","U","6","A","7","hanaU","hanaU","hanaU06-detaA07","511","31","classroom should anywhere fuel habit","hanaU"
"<h1>どちらの単語が聞こえましたか</h1>","617","1","iden_exp","hana","deta","2","U","3","U","1","hanaU","hanaU","hanaU03-detaU01","513","31","classroom should anywhere fuel habit","hanaU"
"<h1>どちらの単語が聞こえましたか</h1>","513","0","iden_exp","hana","deta","2","U","3","U","7","hanaU","hanaU","hanaU03-detaU07","515","31","classroom should anywhere fuel habit","hanaU"
"<h1>どちらの単語が聞こえましたか</h1>","562","0","iden_exp","hana","deta","2","U","7","U","3","hanaU","hanaU","hanaU07-detaU03","517","31","classroom should anywhere fuel habit","hanaU"
"<h1>どちらの単語が聞こえましたか</h1>","730","1","iden_exp","hana","deta","2","U","7","A","7","hanaU","hanaU","hanaU07-detaA07","519","31","classroom should anywhere fuel habit","hanaU"
"<h1>どちらの単語が聞こえましたか</h1>","499","0","iden_exp","hana","deta","2","U","5","U","6","hanaU","hanaU","hanaU05-detaU06","521","31","classroom should anywhere fuel habit","hanaU"
"<h1>どちらの単語が聞こえましたか</h1>","542","0","iden_exp","hana","deta","2","U","9","U","3","hanaU","hanaU","hanaU09-detaU03","523","31","classroom should anywhere fuel habit","hanaU"
"<h1>どちらの単語が聞こえましたか</h1>","525","0","iden_exp","hana","deta","2","A","5","A","6","hanaA","hanaU","hanaA05-detaA06","525","31","classroom should anywhere fuel habit","hanaU"
"<h1>どちらの単語が聞こえましたか</h1>","566","0","iden_exp","hana","deta","2","U","7","U","5","hanaU","hanaU","hanaU07-detaU05","527","31","classroom should anywhere fuel habit","hanaU"
"<h1>どちらの単語が聞こえましたか</h1>","474","0","iden_exp","hana","deta","2","U","7","U","7","hanaU","hanaU","hanaU07-detaU07","529","31","classroom should anywhere fuel habit","hanaU"
"<h1>どちらの単語が聞こえましたか</h1>","529","0","iden_exp","hana","deta","2","A","5","U","7","hanaA","hanaA","hanaA05-detaU07","531","31","classroom should anywhere fuel habit","hanaA"
"<h1>どちらの単語が聞こえましたか</h1>","569","0","iden_exp","hana","deta","2","A","9","U","9","hanaA","hanaA","hanaA09-detaU09","533","32","classroom should anywhere fuel habit","hanaA"
"<h1>どちらの単語が聞こえましたか</h1>","673","1","iden_exp","hana","deta","2","U","9","U","9","hanaU","hanaU","hanaU09-detaU09","535","32","classroom should anywhere fuel habit","hanaU"
"<h1>どちらの単語が聞こえましたか</h1>","596","1","iden_exp","hana","deta","2","U","6","A","1","hanaU","hanaU","hanaU06-detaA01","537","32","classroom should anywhere fuel habit","hanaU"
"<h1>どちらの単語が聞こえましたか</h1>","523","0","iden_exp","hana","deta","2","A","7","A","5","hanaA","hanaU","hanaA07-detaA05","539","32","classroom should anywhere fuel habit","hanaU"
"<h1>どちらの単語が聞こえましたか</h1>","597","0","iden_exp","hana","deta","2","A","1","U","5","hanaA","hanaA","hanaA01-detaU05","541","32","classroom should anywhere fuel habit","hanaA"
"<h1>どちらの単語が聞こえましたか</h1>","545","0","iden_exp","hana","deta","2","A","9","U","6","hanaA","hanaA","hanaA09-detaU06","543","32","classroom should anywhere fuel habit","hanaA"
"<h1>どちらの単語が聞こえましたか</h1>","751","1","iden_exp","hana","deta","2","A","5","A","7","hanaA","hanaU","hanaA05-detaA07","545","32","classroom should anywhere fuel habit","hanaA"
"<h1>どちらの単語が聞こえましたか</h1>","1321","0","iden_exp","hana","deta","2","A","3","U","7","hanaA","hanaA","hanaA03-detaU07","547","32","classroom should anywhere fuel habit","hanaA"
"<h1>どちらの単語が聞こえましたか</h1>","556","1","iden_exp","hana","deta","2","U","7","A","6","hanaU","hanaU","hanaU07-detaA06","549","32","classroom should anywhere fuel habit","hanaU"
"<h1>どちらの単語が聞こえましたか</h1>","1131","1","iden_exp","hana","deta","2","U","1","U","9","hanaU","hanaU","hanaU01-detaU09","551","32","classroom should anywhere fuel habit","hanaU"
"<h1>どちらの単語が聞こえましたか</h1>","532","0","iden_exp","hana","deta","2","A","7","A","6","hanaA","hanaU","hanaA07-detaA06","553","32","classroom should anywhere fuel habit","hanaU"
"<h1>どちらの単語が聞こえましたか</h1>","609","0","iden_exp","hana","deta","2","U","11","A","11","hanaU","hanaU","hanaU11-detaA11","555","32","classroom should anywhere fuel habit","hanaU"
"<h1>どちらの単語が聞こえましたか</h1>","545","0","iden_exp","hana","deta","2","U","11","A","6","hanaU","hanaU","hanaU11-detaA06","557","32","classroom should anywhere fuel habit","hanaU"
"<h1>どちらの単語が聞こえましたか</h1>","776","1","iden_exp","hana","deta","2","U","9","U","11","hanaU","hanaU","hanaU09-detaU11","559","32","classroom should anywhere fuel habit","hanaU"
"<h1>どちらの単語が聞こえましたか</h1>","507","1","iden_exp","hana","deta","2","A","3","U","6","hanaA","hanaA","hanaA03-detaU06","561","32","classroom should anywhere fuel habit","hanaA"
"<h1>どちらの単語が聞こえましたか</h1>","524","1","iden_exp","hana","deta","2","A","3","U","1","hanaA","hanaA","hanaA03-detaU01","563","33","classroom should anywhere fuel habit","hanaA"
"<h1>どちらの単語が聞こえましたか</h1>","651","0","iden_exp","hana","deta","2","A","11","U","5","hanaA","hanaA","hanaA11-detaU05","565","33","classroom should anywhere fuel habit","hanaA"
"<h1>どちらの単語が聞こえましたか</h1>","612","1","iden_exp","hana","deta","2","A","5","U","3","hanaA","hanaA","hanaA05-detaU03","567","33","classroom should anywhere fuel habit","hanaA"
"<h1>どちらの単語が聞こえましたか</h1>","557","1","iden_exp","hana","deta","2","U","3","A","7","hanaU","hanaU","hanaU03-detaA07","569","33","classroom should anywhere fuel habit","hanaU"
"<h1>どちらの単語が聞こえましたか</h1>","897","1","iden_exp","hana","deta","2","A","1","A","9","hanaA","hanaU","hanaA01-detaA09","571","33","classroom should anywhere fuel habit","hanaA"
"<h1>どちらの単語が聞こえましたか</h1>","715","0","iden_exp","hana","deta","2","U","1","A","11","hanaU","hanaU","hanaU01-detaA11","573","33","classroom should anywhere fuel habit","hanaU"
"<h1>どちらの単語が聞こえましたか</h1>","1000","1","iden_exp","hana","deta","2","U","7","U","6","hanaU","hanaU","hanaU07-detaU06","575","33","classroom should anywhere fuel habit","hanaU"
"<h1>どちらの単語が聞こえましたか</h1>","573","0","iden_exp","hana","deta","2","A","11","A","11","hanaA","hanaU","hanaA11-detaA11","577","33","classroom should anywhere fuel habit","hanaU"
"<h1>どちらの単語が聞こえましたか</h1>","770","0","iden_exp","hana","deta","2","A","5","A","1","hanaA","hanaU","hanaA05-detaA01","579","33","classroom should anywhere fuel habit","hanaU"
"<h1>どちらの単語が聞こえましたか</h1>","641","0","iden_exp","hana","deta","2","A","9","A","7","hanaA","hanaU","hanaA09-detaA07","581","33","classroom should anywhere fuel habit","hanaU"
"<h1>どちらの単語が聞こえましたか</h1>","776","1","iden_exp","hana","deta","2","U","3","U","6","hanaU","hanaU","hanaU03-detaU06","583","33","classroom should anywhere fuel habit","hanaU"
"<h1>どちらの単語が聞こえましたか</h1>","491","0","iden_exp","hana","deta","2","U","7","U","9","hanaU","hanaU","hanaU07-detaU09","585","33","classroom should anywhere fuel habit","hanaU"
"<h1>どちらの単語が聞こえましたか</h1>","623","1","iden_exp","hana","deta","2","A","1","A","6","hanaA","hanaU","hanaA01-detaA06","587","33","classroom should anywhere fuel habit","hanaA"
"<h1>どちらの単語が聞こえましたか</h1>","672","0","iden_exp","hana","deta","2","A","7","A","7","hanaA","hanaU","hanaA07-detaA07","589","33","classroom should anywhere fuel habit","hanaU"
"<h1>どちらの単語が聞こえましたか</h1>","520","0","iden_exp","hana","deta","2","U","9","U","7","hanaU","hanaU","hanaU09-detaU07","591","33","classroom should anywhere fuel habit","hanaU"
"<h1>どちらの単語が聞こえましたか</h1>","555","1","iden_exp","hana","deta","2","A","9","U","1","hanaA","hanaA","hanaA09-detaU01","593","33","classroom should anywhere fuel habit","hanaA"
"<h1>どちらの単語が聞こえましたか</h1>","584","1","iden_exp","hana","deta","2","A","3","A","3","hanaA","hanaU","hanaA03-detaA03","595","34","classroom should anywhere fuel habit","hanaA"
"<h1>どちらの単語が聞こえましたか</h1>","587","1","iden_exp","hana","deta","2","U","11","U","1","hanaU","hanaU","hanaU11-detaU01","597","34","classroom should anywhere fuel habit","hanaU"
"<h1>どちらの単語が聞こえましたか</h1>","550","1","iden_exp","hana","deta","2","A","5","A","3","hanaA","hanaU","hanaA05-detaA03","599","34","classroom should anywhere fuel habit","hanaA"
"<h1>どちらの単語が聞こえましたか</h1>","467","0","iden_exp","hana","deta","2","U","1","U","6","hanaU","hanaU","hanaU01-detaU06","601","34","classroom should anywhere fuel habit","hanaU"
"<h1>どちらの単語が聞こえましたか</h1>","583","0","iden_exp","","","2","","","","","","","","603","34","classroom should anywhere fuel habit",""
"<h1>どちらの単語が聞こえましたか</h1>","679","1","iden_exp","hana","deta","2","U","7","A","5","hanaU","hanaU","hanaU07-detaA05","605","34","classroom should anywhere fuel habit","hanaU"
"<h1>どちらの単語が聞こえましたか</h1>","580","0","iden_exp","hana","deta","2","A","6","A","3","hanaA","hanaU","hanaA06-detaA03","607","34","classroom should anywhere fuel habit","hanaU"
"<h1>どちらの単語が聞こえましたか</h1>","583","0","iden_exp","hana","deta","2","A","11","A","7","hanaA","hanaU","hanaA11-detaA07","609","34","classroom should anywhere fuel habit","hanaU"
"<h1>どちらの単語が聞こえましたか</h1>","659","0","iden_exp","hana","deta","2","A","6","A","9","hanaA","hanaU","hanaA06-detaA09","611","34","classroom should anywhere fuel habit","hanaU"
"<h1>どちらの単語が聞こえましたか</h1>","645","0","iden_exp","hana","deta","2","A","1","U","7","hanaA","hanaA","hanaA01-detaU07","613","34","classroom should anywhere fuel habit","hanaA"
"<h1>どちらの単語が聞こえましたか</h1>","663","1","iden_exp","hana","deta","2","U","5","A","5","hanaU","hanaU","hanaU05-detaA05","615","34","classroom should anywhere fuel habit","hanaU"
"<h1>どちらの単語が聞こえましたか</h1>","629","1","iden_exp","hana","deta","2","A","6","A","6","hanaA","hanaU","hanaA06-detaA06","617","35","classroom should anywhere fuel habit","hanaA"
"<h1>どちらの単語が聞こえましたか</h1>","787","0","iden_exp","hana","deta","2","A","7","U","5","hanaA","hanaA","hanaA07-detaU05","619","35","classroom should anywhere fuel habit","hanaA"
"<h1>どちらの単語が聞こえましたか</h1>","485","0","iden_exp","hana","deta","2","A","3","A","1","hanaA","hanaU","hanaA03-detaA01","621","35","classroom should anywhere fuel habit","hanaU"
"<h1>どちらの単語が聞こえましたか</h1>","508","1","iden_exp","hana","deta","2","U","9","A","9","hanaU","hanaU","hanaU09-detaA09","623","35","classroom should anywhere fuel habit","hanaU"
"<h1>どちらの単語が聞こえましたか</h1>","577","0","iden_exp","hana","deta","2","U","7","A","9","hanaU","hanaU","hanaU07-detaA09","625","35","classroom should anywhere fuel habit","hanaU"
"<h1>どちらの単語が聞こえましたか</h1>","788","1","iden_exp","hana","deta","2","U","1","U","3","hanaU","hanaU","hanaU01-detaU03","627","36","classroom should anywhere fuel habit","hanaU"
"<h1>どちらの単語が聞こえましたか</h1>","597","1","iden_exp","hana","deta","2","U","3","A","9","hanaU","hanaU","hanaU03-detaA09","629","36","classroom should anywhere fuel habit","hanaU"
"<h1>どちらの単語が聞こえましたか</h1>","534","0","iden_exp","hana","deta","2","A","6","A","1","hanaA","hanaU","hanaA06-detaA01","631","36","classroom should anywhere fuel habit","hanaU"
"<h1>どちらの単語が聞こえましたか</h1>","623","1","iden_exp","hana","deta","2","A","11","A","3","hanaA","hanaU","hanaA11-detaA03","633","36","classroom should anywhere fuel habit","hanaA"
"<h1>どちらの単語が聞こえましたか</h1>","568","1","iden_exp","hana","deta","2","U","5","A","6","hanaU","hanaU","hanaU05-detaA06","635","36","classroom should anywhere fuel habit","hanaU"
"<h1>どちらの単語が聞こえましたか</h1>","507","1","iden_exp","hana","deta","2","A","9","A","11","hanaA","hanaU","hanaA09-detaA11","637","36","classroom should anywhere fuel habit","hanaA"
"<h1>どちらの単語が聞こえましたか</h1>","476","1","iden_exp","hana","deta","2","A","7","U","3","hanaA","hanaA","hanaA07-detaU03","639","36","classroom should anywhere fuel habit","hanaA"
"<h1>どちらの単語が聞こえましたか</h1>","529","1","iden_exp","hana","deta","2","U","5","A","7","hanaU","hanaU","hanaU05-detaA07","641","36","classroom should anywhere fuel habit","hanaU"
"<h1>どちらの単語が聞こえましたか</h1>","623","1","iden_exp","hana","deta","2","A","7","U","9","hanaA","hanaA","hanaA07-detaU09","643","36","classroom should anywhere fuel habit","hanaA"
"<h1>どちらの単語が聞こえましたか</h1>","553","0","iden_exp","hana","deta","2","U","11","A","1","hanaU","hanaU","hanaU11-detaA01","645","36","classroom should anywhere fuel habit","hanaU"
"<h1>どちらの単語が聞こえましたか</h1>","645","0","iden_exp","hana","deta","2","U","6","A","3","hanaU","hanaU","hanaU06-detaA03","647","36","classroom should anywhere fuel habit","hanaU"
"<h1>どちらの単語が聞こえましたか</h1>","704","1","iden_exp","hana","deta","2","U","11","U","5","hanaU","hanaU","hanaU11-detaU05","649","36","classroom should anywhere fuel habit","hanaU"
"<h1>どちらの単語が聞こえましたか</h1>","636","0","iden_exp","hana","deta","2","A","6","U","5","hanaA","hanaA","hanaA06-detaU05","651","36","classroom should anywhere fuel habit","hanaA"
"<h1>どちらの単語が聞こえましたか</h1>","570","1","iden_exp","hana","deta","2","U","9","A","3","hanaU","hanaU","hanaU09-detaA03","653","36","classroom should anywhere fuel habit","hanaU"
"<h1>どちらの単語が聞こえましたか</h1>","1091","0","iden_exp","hana","deta","2","U","6","U","3","hanaU","hanaU","hanaU06-detaU03","655","36","classroom should anywhere fuel habit","hanaU"
"<h1>どちらの単語が聞こえましたか</h1>","570","0","iden_exp","hana","deta","2","A","1","U","9","hanaA","hanaA","hanaA01-detaU09","657","36","classroom should anywhere fuel habit","hanaA"
"<h1>どちらの単語が聞こえましたか</h1>","587","1","iden_exp","hana","deta","2","A","11","U","6","hanaA","hanaA","hanaA11-detaU06","659","37","classroom should anywhere fuel habit","hanaA"
"<h1>どちらの単語が聞こえましたか</h1>","758","0","iden_exp","hana","deta","2","A","7","U","1","hanaA","hanaA","hanaA07-detaU01","661","37","classroom should anywhere fuel habit","hanaA"
"<h1>どちらの単語が聞こえましたか</h1>","587","1","iden_exp","hana","deta","2","A","3","U","5","hanaA","hanaA","hanaA03-detaU05","663","37","classroom should anywhere fuel habit","hanaA"
"<h1>どちらの単語が聞こえましたか</h1>","629","1","iden_exp","hana","deta","2","A","1","A","1","hanaA","hanaU","hanaA01-detaA01","665","37","classroom should anywhere fuel habit","hanaA"
"<h1>どちらの単語が聞こえましたか</h1>","450","0","iden_exp","hana","deta","2","U","3","U","11","hanaU","hanaU","hanaU03-detaU11","667","37","classroom should anywhere fuel habit","hanaU"
"<h1>どちらの単語が聞こえましたか</h1>","487","0","iden_exp","hana","deta","2","A","9","U","3","hanaA","hanaA","hanaA09-detaU03","669","37","classroom should anywhere fuel habit","hanaA"
"<h1>どちらの単語が聞こえましたか</h1>","599","0","iden_exp","hana","deta","2","A","6","U","1","hanaA","hanaA","hanaA06-detaU01","671","37","classroom should anywhere fuel habit","hanaA"
"<h1>どちらの単語が聞こえましたか</h1>","666","0","iden_exp","hana","deta","2","A","11","A","6","hanaA","hanaU","hanaA11-detaA06","673","37","classroom should anywhere fuel habit","hanaU"
"<h1>どちらの単語が聞こえましたか</h1>","546","0","iden_exp","hana","deta","2","U","1","U","7","hanaU","hanaU","hanaU01-detaU07","675","37","classroom should anywhere fuel habit","hanaU"
"<h1>どちらの単語が聞こえましたか</h1>","591","0","iden_exp","hana","deta","2","U","9","A","11","hanaU","hanaU","hanaU09-detaA11","677","37","classroom should anywhere fuel habit","hanaU"
"<h1>どちらの単語が聞こえましたか</h1>","491","0","iden_exp","hana","deta","2","A","7","A","3","hanaA","hanaU","hanaA07-detaA03","679","37","classroom should anywhere fuel habit","hanaU"
"<h1>どちらの単語が聞こえましたか</h1>","577","1","iden_exp","hana","deta","2","A","9","A","6","hanaA","hanaU","hanaA09-detaA06","681","37","classroom should anywhere fuel habit","hanaA"
"<h1>どちらの単語が聞こえましたか</h1>","714","1","iden_exp","hana","deta","2","U","3","A","11","hanaU","hanaU","hanaU03-detaA11","683","37","classroom should anywhere fuel habit","hanaU"
"<h1>どちらの単語が聞こえましたか</h1>","641","1","iden_exp","hana","deta","2","U","5","A","9","hanaU","hanaU","hanaU05-detaA09","685","37","classroom should anywhere fuel habit","hanaU"
"<h1>どちらの単語が聞こえましたか</h1>","533","0","iden_exp","hana","deta","2","U","1","A","7","hanaU","hanaU","hanaU01-detaA07","687","37","classroom should anywhere fuel habit","hanaU"
"<h1>どちらの単語が聞こえましたか</h1>","553","0","iden_exp","hana","deta","2","U","11","U","11","hanaU","hanaU","hanaU11-detaU11","689","37","classroom should anywhere fuel habit","hanaU"
"<h1>どちらの単語が聞こえましたか</h1>","560","1","iden_exp","hana","deta","2","A","1","U","11","hanaA","hanaA","hanaA01-detaU11","691","37","classroom should anywhere fuel habit","hanaA"
"<h1>どちらの単語が聞こえましたか</h1>","565","0","iden_exp","hana","deta","2","U","6","A","5","hanaU","hanaU","hanaU06-detaA05","693","38","classroom should anywhere fuel habit","hanaU"
"<h1>どちらの単語が聞こえましたか</h1>","629","0","iden_exp","hana","deta","2","A","3","A","6","hanaA","hanaU","hanaA03-detaA06","695","38","classroom should anywhere fuel habit","hanaU"
"<h1>どちらの単語が聞こえましたか</h1>","527","1","iden_exp","hana","deta","2","A","11","U","3","hanaA","hanaA","hanaA11-detaU03","697","38","classroom should anywhere fuel habit","hanaA"
"<h1>どちらの単語が聞こえましたか</h1>","589","0","iden_exp","hana","deta","2","U","11","U","6","hanaU","hanaU","hanaU11-detaU06","699","38","classroom should anywhere fuel habit","hanaU"
"<h1>どちらの単語が聞こえましたか</h1>","555","0","iden_exp","hana","deta","2","A","6","U","7","hanaA","hanaA","hanaA06-detaU07","701","38","classroom should anywhere fuel habit","hanaA"
"<h1>どちらの単語が聞こえましたか</h1>","656","1","iden_exp","hana","deta","2","A","6","A","5","hanaA","hanaU","hanaA06-detaA05","703","38","classroom should anywhere fuel habit","hanaA"
"<h1>どちらの単語が聞こえましたか</h1>","635","0","iden_exp","hana","deta","2","U","5","U","11","hanaU","hanaU","hanaU05-detaU11","705","38","classroom should anywhere fuel habit","hanaU"
"<h1>どちらの単語が聞こえましたか</h1>","532","0","iden_exp","hana","deta","2","A","7","A","9","hanaA","hanaU","hanaA07-detaA09","707","38","classroom should anywhere fuel habit","hanaU"
"<h1>どちらの単語が聞こえましたか</h1>","613","0","iden_exp","hana","deta","2","A","6","U","11","hanaA","hanaA","hanaA06-detaU11","709","38","classroom should anywhere fuel habit","hanaA"
"<h1>どちらの単語が聞こえましたか</h1>","903","0","iden_exp","hana","deta","2","U","6","A","6","hanaU","hanaU","hanaU06-detaA06","711","38","classroom should anywhere fuel habit","hanaU"
"<h1>どちらの単語が聞こえましたか</h1>","884","0","iden_exp","hana","deta","2","A","9","A","5","hanaA","hanaU","hanaA09-detaA05","713","38","classroom should anywhere fuel habit","hanaU"
"<h1>どちらの単語が聞こえましたか</h1>","625","1","iden_exp","hana","deta","2","U","11","A","9","hanaU","hanaU","hanaU11-detaA09","715","38","classroom should anywhere fuel habit","hanaU"
"<h1>どちらの単語が聞こえましたか</h1>","671","1","iden_exp","hana","deta","2","A","7","A","11","hanaA","hanaU","hanaA07-detaA11","717","38","classroom should anywhere fuel habit","hanaA"
"<h1>どちらの単語が聞こえましたか</h1>","731","0","iden_exp","hana","deta","2","U","3","U","5","hanaU","hanaU","hanaU03-detaU05","719","38","classroom should anywhere fuel habit","hanaU"
"<h1>どちらの単語が聞こえましたか</h1>","572","0","iden_exp","hana","deta","2","A","1","A","11","hanaA","hanaU","hanaA01-detaA11","721","39","classroom should anywhere fuel habit","hanaU"
"<h1>どちらの単語が聞こえましたか</h1>","856","0","iden_exp","hana","deta","2","U","6","U","7","hanaU","hanaU","hanaU06-detaU07","723","39","classroom should anywhere fuel habit","hanaU"
"<h1>どちらの単語が聞こえましたか</h1>","750","1","iden_exp","hana","deta","2","U","6","U","11","hanaU","hanaU","hanaU06-detaU11","725","39","classroom should anywhere fuel habit","hanaU"
"<h1>どちらの単語が聞こえましたか</h1>","1188","1","iden_exp","hana","deta","2","U","11","U","7","hanaU","hanaU","hanaU11-detaU07","727","39","classroom should anywhere fuel habit","hanaU"
"<h1>どちらの単語が聞こえましたか</h1>","1197","1","iden_exp","hana","deta","2","U","11","U","3","hanaU","hanaU","hanaU11-detaU03","729","39","classroom should anywhere fuel habit","hanaU"
"<h1>どちらの単語が聞こえましたか</h1>","484","0","iden_exp","hana","deta","2","A","11","U","1","hanaA","hanaA","hanaA11-detaU01","731","39","classroom should anywhere fuel habit","hanaA"
"<h1>どちらの単語が聞こえましたか</h1>","811","1","iden_exp","hana","deta","2","A","5","U","11","hanaA","hanaA","hanaA05-detaU11","733","39","classroom should anywhere fuel habit","hanaA"
"<h1>どちらの単語が聞こえましたか</h1>","636","1","iden_exp","hana","deta","2","A","1","U","1","hanaA","hanaA","hanaA01-detaU01","735","39","classroom should anywhere fuel habit","hanaA"
"<h1>どちらの単語が聞こえましたか</h1>","997","1","iden_exp","hana","deta","2","U","3","U","9","hanaU","hanaU","hanaU03-detaU09","737","39","classroom should anywhere fuel habit","hanaU"
"<h1>どちらの単語が聞こえましたか</h1>","544","0","iden_exp","hana","deta","2","U","6","A","9","hanaU","hanaU","hanaU06-detaA09","739","39","classroom should anywhere fuel habit","hanaU"
"<h1>どちらの単語が聞こえましたか</h1>","556","0","iden_exp","hana","deta","2","U","1","A","1","hanaU","hanaU","hanaU01-detaA01","741","39","classroom should anywhere fuel habit","hanaU"
"<h1>どちらの単語が聞こえましたか</h1>","845","1","iden_exp","hana","deta","2","U","5","A","1","hanaU","hanaU","hanaU05-detaA01","743","39","classroom should anywhere fuel habit","hanaU"
"<h1>どちらの単語が聞こえましたか</h1>","641","1","iden_exp","hana","deta","2","A","6","A","11","hanaA","hanaU","hanaA06-detaA11","745","39","classroom should anywhere fuel habit","hanaA"
"<h1>どちらの単語が聞こえましたか</h1>","591","0","iden_exp","hana","deta","2","U","1","A","9","hanaU","hanaU","hanaU01-detaA09","747","39","classroom should anywhere fuel habit","hanaU"
"<h1>どちらの単語が聞こえましたか</h1>","518","1","iden_exp","hana","deta","2","A","5","U","1","hanaA","hanaA","hanaA05-detaU01","749","39","classroom should anywhere fuel habit","hanaA"
"<h1>どちらの単語が聞こえましたか</h1>","540","0","iden_exp","hana","deta","2","U","5","U","1","hanaU","hanaU","hanaU05-detaU01","751","39","classroom should anywhere fuel habit","hanaU"
"<h1>どちらの単語が聞こえましたか</h1>","779","1","iden_exp","hana","deta","2","U","9","U","6","hanaU","hanaU","hanaU09-detaU06","753","40","classroom should anywhere fuel habit","hanaU"
"<h1>どちらの単語が聞こえましたか</h1>","531","0","iden_exp","hana","deta","2","U","5","A","11","hanaU","hanaU","hanaU05-detaA11","755","40","classroom should anywhere fuel habit","hanaU"
"<h1>どちらの単語が聞こえましたか</h1>","648","0","iden_exp","hana","deta","2","A","11","U","11","hanaA","hanaA","hanaA11-detaU11","757","40","classroom should anywhere fuel habit","hanaA"
"<h1>どちらの単語が聞こえましたか</h1>","549","0","iden_exp","hana","deta","2","A","11","U","9","hanaA","hanaA","hanaA11-detaU09","759","40","classroom should anywhere fuel habit","hanaA"
"<h1>どちらの単語が聞こえましたか</h1>","730","1","iden_exp","hana","deta","2","U","1","U","11","hanaU","hanaU","hanaU01-detaU11","761","40","classroom should anywhere fuel habit","hanaU"
"<h1>どちらの単語が聞こえましたか</h1>","735","0","iden_exp","hana","deta","2","A","1","U","3","hanaA","hanaA","hanaA01-detaU03","763","40","classroom should anywhere fuel habit","hanaA"
"<h1>どちらの単語が聞こえましたか</h1>","650","1","iden_exp","hana","deta","2","U","9","U","5","hanaU","hanaU","hanaU09-detaU05","765","40","classroom should anywhere fuel habit","hanaU"
"<h1>どちらの単語が聞こえましたか</h1>","678","1","iden_exp","hana","deta","2","U","9","A","7","hanaU","hanaU","hanaU09-detaA07","767","40","classroom should anywhere fuel habit","hanaU"
"<h1>どちらの単語が聞こえましたか</h1>","671","0","iden_exp","hana","deta","2","U","1","A","6","hanaU","hanaU","hanaU01-detaA06","769","40","classroom should anywhere fuel habit","hanaU"
"<h1>どちらの単語が聞こえましたか</h1>","895","1","iden_exp","hana","deta","2","A","3","U","3","hanaA","hanaA","hanaA03-detaU03","771","40","classroom should anywhere fuel habit","hanaA"
"<h1>どちらの単語が聞こえましたか</h1>","527","0","iden_exp","hana","deta","2","U","9","A","6","hanaU","hanaU","hanaU09-detaA06","773","40","classroom should anywhere fuel habit","hanaU"
"<h1>どちらの単語が聞こえましたか</h1>","691","1","iden_exp","hana","deta","2","U","7","A","11","hanaU","hanaU","hanaU07-detaA11","775","40","classroom should anywhere fuel habit","hanaU"
"<h1>どちらの単語が聞こえましたか</h1>","516","0","iden_exp","hana","deta","2","U","6","U","6","hanaU","hanaU","hanaU06-detaU06","777","40","classroom should anywhere fuel habit","hanaU"
"<h1>どちらの単語が聞こえましたか</h1>","645","1","iden_exp","hana","deta","2","U","11","A","7","hanaU","hanaU","hanaU11-detaA07","779","40","classroom should anywhere fuel habit","hanaU"
"<h1>どちらの単語が聞こえましたか</h1>","867","0","iden_exp","hana","deta","2","U","7","A","1","hanaU","hanaU","hanaU07-detaA01","781","41","classroom should anywhere fuel habit","hanaU"
"<h1>どちらの単語が聞こえましたか</h1>","527","1","iden_exp","hana","deta","2","U","9","A","5","hanaU","hanaU","hanaU09-detaA05","783","41","classroom should anywhere fuel habit","hanaU"
"<h1>どちらの単語が聞こえましたか</h1>","586","0","iden_exp","hana","deta","2","U","3","A","6","hanaU","hanaU","hanaU03-detaA06","785","41","classroom should anywhere fuel habit","hanaU"
"<h1>どちらの単語が聞こえましたか</h1>","544","1","iden_exp","hana","deta","2","U","6","U","9","hanaU","hanaU","hanaU06-detaU09","787","41","classroom should anywhere fuel habit","hanaU"
"<h1>どちらの単語が聞こえましたか</h1>","619","1","iden_exp","hana","deta","2","A","5","A","9","hanaA","hanaU","hanaA05-detaA09","789","41","classroom should anywhere fuel habit","hanaA"
"<h1>どちらの単語が聞こえましたか</h1>","498","0","iden_exp","hana","deta","2","U","7","A","3","hanaU","hanaU","hanaU07-detaA03","791","41","classroom should anywhere fuel habit","hanaU"
"<h1>どちらの単語が聞こえましたか</h1>","564","0","iden_exp","hana","deta","2","A","5","A","11","hanaA","hanaU","hanaA05-detaA11","793","41","classroom should anywhere fuel habit","hanaU"
"<h1>どちらの単語が聞こえましたか</h1>","499","0","iden_exp","hana","deta","2","A","5","A","5","hanaA","hanaU","hanaA05-detaA05","795","41","classroom should anywhere fuel habit","hanaU"
"<h1>どちらの単語が聞こえましたか</h1>","542","1","iden_exp","hana","deta","2","U","3","U","3","hanaU","hanaU","hanaU03-detaU03","797","41","classroom should anywhere fuel habit","hanaU"
"<h1>どちらの単語が聞こえましたか</h1>","717","1","iden_exp","hana","deta","2","A","1","A","7","hanaA","hanaU","hanaA01-detaA07","799","41","classroom should anywhere fuel habit","hanaA"
"<h1>どちらの単語が聞こえましたか</h1>","762","0","iden_exp","hana","deta","2","U","11","U","9","hanaU","hanaU","hanaU11-detaU09","801","41","classroom should anywhere fuel habit","hanaU"
"<h1>どちらの単語が聞こえましたか</h1>","522","1","iden_exp","hana","deta","2","U","3","A","3","hanaU","hanaU","hanaU03-detaA03","803","41","classroom should anywhere fuel habit","hanaU"
"<h1>どちらの単語が聞こえましたか</h1>","762","1","iden_exp","hana","deta","2","A","7","U","6","hanaA","hanaA","hanaA07-detaU06","805","41","classroom should anywhere fuel habit","hanaA"
"<h1>どちらの単語が聞こえましたか</h1>","535","1","iden_exp","hana","deta","2","U","5","A","3","hanaU","hanaU","hanaU05-detaA03","807","41","classroom should anywhere fuel habit","hanaU"
"<h1>どちらの単語が聞こえましたか</h1>","601","1","iden_exp","hana","deta","2","A","11","A","9","hanaA","hanaU","hanaA11-detaA09","809","41","classroom should anywhere fuel habit","hanaA"
