"stimulus","rt","response","phase","word","carrier","block","wordAccent","wordAccentStep","carrierAccent","carrierAccentStep","option_0","option_1","sound","trial_index","time_elapsed","participantID","answer"
"<h1>どちらの単語が聞こえましたか</h1>","521","0","practice","hana","deta","2","A","1","A","1","hanaA","hanaU","hanaA01-detaA01","4","2","visit","hanaA"
"<h1>どちらの単語が聞こえましたか</h1>","481","0","practice","hana","deta","2","A","11","A","11","hanaA","hanaU","hanaA11-detaA11","6","2","visit","hanaA"
"<h1>どちらの単語が聞こえましたか</h1>","607","0","practice","hana","deta","2","U","1","U","1","hanaA","hanaU","hanaU01-detaU01","8","3","visit","hanaA"
"<h1>どちらの単語が聞こえましたか</h1>","565","0","practice","hana","deta","2","U","11","U","11","hanaA","hanaU","hanaU11-detaU11","10","3","visit","hanaA"
"<h1>どちらの単語が聞こえましたか</h1>","570","1","practice","hana","deta","2","A","1","U","1","hanaA","hanaU","hanaA01-detaU01","13","3","visit","hanaA"
"<h1>どちらの単語が聞こえましたか</h1>","551","1","practice","hana","deta","2","A","11","U","11","hanaA","hanaU","hanaA11-detaU11","15","3","visit","hanaA"
"<h1>どちらの単語が聞こえましたか</h1>","538","1","practice","hana","deta","2","U","1","A","1","hanaA","hanaU","hanaU01-detaA01","17","3","visit","hanaA"
"<h1>どちらの単語が聞こえましたか</h1>","606","1","practice","hana","deta","2","U","11","A","11","hanaA","hanaU","hanaU11-detaA11","19","3","visit","hanaA"
"<h1>どちらの単語が聞こえましたか</h1>","576","1","iden_exp","hana","deta","1","U","1","U","9","hanaU","hanaU","hanaU01-detaU09","22","3","visit","hanaU"
"<h1>どちらの単語が聞こえましたか</h1>","589","1","iden_exp","hana","deta","1","A","3","A","1","hanaA","hanaU","hanaA03-detaA01","24","4","visit","hanaU"
"<h1>どちらの単語が聞こえましたか</h1>","583","0","iden_exp","hana","deta","1","U","11","A","11","hanaU","hanaU","hanaU11-detaA11","26","4","visit","hanaU"
"<h1>どちらの単語が聞こえましたか</h1>","520","0","iden_exp","hana","deta","1","U","3","U","7","hanaU","hanaU","hanaU03-detaU07","28","4","visit","hanaU"
"<h1>どちらの単語が聞こえましたか</h1>","727","1","iden_exp","hana","deta","1","A","9","U","9","hanaA","hanaA","hanaA09-detaU09","30","4","visit","hanaA"
"<h1>どちらの単語が聞こえましたか</h1>","992","0","iden_exp","hana","deta","1","A","3","A","11","hanaA","hanaU","hanaA03-detaA11","32","4","visit","hanaA"
"<h1>どちらの単語が聞こえましたか</h1>","663","0","iden_exp","hana","deta","1","A","9","A","1","hanaA","hanaU","hanaA09-detaA01","34","4","visit","hanaA"
"<h1>どちらの単語が聞こえましたか</h1>","524","1","iden_exp","hana","deta","1","A","11","U","11","hanaA","hanaA","hanaA11-detaU11","36","4","visit","hanaA"
"<h1>どちらの単語が聞こえましたか</h1>","524","1","iden_exp","hana","deta","1","U","9","A","5","hanaU","hanaU","hanaU09-detaA05","38","4","visit","hanaU"
"<h1>どちらの単語が聞こえましたか</h1>","1063","0","iden_exp","hana","deta","1","A","7","U","6","hanaA","hanaA","hanaA07-detaU06","40","4","visit","hanaA"
"<h1>どちらの単語が聞こえましたか</h1>","468","1","iden_exp","hana","deta","1","U","9","U","1","hanaU","hanaU","hanaU09-detaU01","42","4","visit","hanaU"
"<h1>どちらの単語が聞こえましたか</h1>","624","1","iden_exp","hana","deta","1","A","7","A","1","hanaA","hanaU","hanaA07-detaA01","44","5","visit","hanaU"
"<h1>どちらの単語が聞こえましたか</h1>","1027","0","iden_exp","hana","deta","1","U","5","U","11","hanaU","hanaU","hanaU05-detaU11","46","5","visit","hanaU"
"<h1>どちらの単語が聞こえましたか</h1>","476","0","iden_exp","hana","deta","1","U","9","A","9","hanaU","hanaU","hanaU09-detaA09","48","5","visit","hanaU"
"<h1>どちらの単語が聞こえましたか</h1>","847","1","iden_exp","hana","deta","1","U","11","U","6","hanaU","hanaU","hanaU11-detaU06","50","5","visit","hanaU"
"<h1>どちらの単語が聞こえましたか</h1>","516","1","iden_exp","hana","deta","1","A","3","U","11","hanaA","hanaA","hanaA03-detaU11","52","5","visit","hanaA"
"<h1>どちらの単語が聞こえましたか</h1>","561","1","iden_exp","hana","deta","1","U","11","U","5","hanaU","hanaU","hanaU11-detaU05","54","5","visit","hanaU"
"<h1>どちらの単語が聞こえましたか</h1>","823","0","iden_exp","hana","deta","1","U","5","A","6","hanaU","hanaU","hanaU05-detaA06","56","5","visit","hanaU"
"<h1>どちらの単語が聞こえましたか</h1>","598","0","iden_exp","hana","deta","1","A","9","U","3","hanaA","hanaA","hanaA09-detaU03","58","5","visit","hanaA"
"<h1>どちらの単語が聞こえましたか</h1>","664","0","iden_exp","hana","deta","1","U","3","U","3","hanaU","hanaU","hanaU03-detaU03","60","5","visit","hanaU"
"<h1>どちらの単語が聞こえましたか</h1>","769","1","iden_exp","hana","deta","1","U","7","U","6","hanaU","hanaU","hanaU07-detaU06","62","5","visit","hanaU"
"<h1>どちらの単語が聞こえましたか</h1>","557","0","iden_exp","hana","deta","1","A","9","U","7","hanaA","hanaA","hanaA09-detaU07","64","5","visit","hanaA"
"<h1>どちらの単語が聞こえましたか</h1>","763","0","iden_exp","hana","deta","1","U","7","U","7","hanaU","hanaU","hanaU07-detaU07","66","5","visit","hanaU"
"<h1>どちらの単語が聞こえましたか</h1>","632","1","iden_exp","hana","deta","1","U","7","U","1","hanaU","hanaU","hanaU07-detaU01","68","6","visit","hanaU"
"<h1>どちらの単語が聞こえましたか</h1>","718","0","iden_exp","hana","deta","1","A","5","U","9","hanaA","hanaA","hanaA05-detaU09","70","6","visit","hanaA"
"<h1>どちらの単語が聞こえましたか</h1>","498","1","iden_exp","hana","deta","1","A","11","U","7","hanaA","hanaA","hanaA11-detaU07","72","7","visit","hanaA"
"<h1>どちらの単語が聞こえましたか</h1>","718","0","iden_exp","hana","deta","1","U","6","U","11","hanaU","hanaU","hanaU06-detaU11","74","7","visit","hanaU"
"<h1>どちらの単語が聞こえましたか</h1>","518","0","iden_exp","hana","deta","1","U","11","U","9","hanaU","hanaU","hanaU11-detaU09","76","7","visit","hanaU"
"<h1>どちらの単語が聞こえましたか</h1>","533","0","iden_exp","hana","deta","1","A","11","U","6","hanaA","hanaA","hanaA11-detaU06","78","7","visit","hanaA"
"<h1>どちらの単語が聞こえましたか</h1>","543","1","iden_exp","hana","deta","1","A","11","A","3","hanaA","hanaU","hanaA11-detaA03","80","7","visit","hanaU"
"<h1>どちらの単語が聞こえましたか</h1>","534","1","iden_exp","hana","deta","1","A","1","U","6","hanaA","hanaA","hanaA01-detaU06","82","7","visit","hanaA"
"<h1>どちらの単語が聞こえましたか</h1>","951","0","iden_exp","hana","deta","1","U","6","U","3","hanaU","hanaU","hanaU06-detaU03","84","7","visit","hanaU"
"<h1>どちらの単語が聞こえましたか</h1>","483","1","iden_exp","hana","deta","1","A","7","A","3","hanaA","hanaU","hanaA07-detaA03","86","7","visit","hanaU"
"<h1>どちらの単語が聞こえましたか</h1>","560","0","iden_exp","hana","deta","1","A","7","A","6","hanaA","hanaU","hanaA07-detaA06","88","7","visit","hanaA"
"<h1>どちらの単語が聞こえましたか</h1>","475","0","iden_exp","hana","deta","1","A","9","U","1","hanaA","hanaA","hanaA09-detaU01","90","7","visit","hanaA"
"<h1>どちらの単語が聞こえましたか</h1>","520","0","iden_exp","hana","deta","1","A","3","U","5","hanaA","hanaA","hanaA03-detaU05","92","7","visit","hanaA"
"<h1>どちらの単語が聞こえましたか</h1>","624","1","iden_exp","hana","deta","1","A","1","A","11","hanaA","hanaU","hanaA01-detaA11","94","8","visit","hanaU"
"<h1>どちらの単語が聞こえましたか</h1>","565","1","iden_exp","hana","deta","1","A","9","U","11","hanaA","hanaA","hanaA09-detaU11","96","8","visit","hanaA"
"<h1>どちらの単語が聞こえましたか</h1>","860","0","iden_exp","hana","deta","1","U","5","A","11","hanaU","hanaU","hanaU05-detaA11","98","8","visit","hanaU"
"<h1>どちらの単語が聞こえましたか</h1>","739","0","iden_exp","hana","deta","1","U","5","U","6","hanaU","hanaU","hanaU05-detaU06","100","8","visit","hanaU"
"<h1>どちらの単語が聞こえましたか</h1>","588","0","iden_exp","hana","deta","1","A","6","U","1","hanaA","hanaA","hanaA06-detaU01","102","8","visit","hanaA"
"<h1>どちらの単語が聞こえましたか</h1>","701","1","iden_exp","hana","deta","1","U","9","A","7","hanaU","hanaU","hanaU09-detaA07","104","8","visit","hanaU"
"<h1>どちらの単語が聞こえましたか</h1>","547","0","iden_exp","hana","deta","1","U","3","A","1","hanaU","hanaU","hanaU03-detaA01","106","8","visit","hanaU"
"<h1>どちらの単語が聞こえましたか</h1>","923","0","iden_exp","hana","deta","1","U","9","U","5","hanaU","hanaU","hanaU09-detaU05","108","8","visit","hanaU"
"<h1>どちらの単語が聞こえましたか</h1>","460","1","iden_exp","hana","deta","1","A","3","A","3","hanaA","hanaU","hanaA03-detaA03","110","8","visit","hanaU"
"<h1>どちらの単語が聞こえましたか</h1>","871","0","iden_exp","hana","deta","1","U","6","A","3","hanaU","hanaU","hanaU06-detaA03","112","8","visit","hanaU"
"<h1>どちらの単語が聞こえましたか</h1>","555","1","iden_exp","hana","deta","1","U","3","A","5","hanaU","hanaU","hanaU03-detaA05","114","8","visit","hanaU"
"<h1>どちらの単語が聞こえましたか</h1>","542","0","iden_exp","hana","deta","1","A","6","U","7","hanaA","hanaA","hanaA06-detaU07","116","9","visit","hanaA"
"<h1>どちらの単語が聞こえましたか</h1>","851","1","iden_exp","hana","deta","1","U","9","U","6","hanaU","hanaU","hanaU09-detaU06","118","9","visit","hanaU"
"<h1>どちらの単語が聞こえましたか</h1>","572","0","iden_exp","hana","deta","1","U","9","U","7","hanaU","hanaU","hanaU09-detaU07","120","9","visit","hanaU"
"<h1>どちらの単語が聞こえましたか</h1>","495","0","iden_exp","hana","deta","1","U","5","U","1","hanaU","hanaU","hanaU05-detaU01","122","9","visit","hanaU"
"<h1>どちらの単語が聞こえましたか</h1>","596","1","iden_exp","hana","deta","1","A","5","U","7","hanaA","hanaA","hanaA05-detaU07","124","9","visit","hanaA"
"<h1>どちらの単語が聞こえましたか</h1>","583","0","iden_exp","hana","deta","1","U","1","A","3","hanaU","hanaU","hanaU01-detaA03","126","9","visit","hanaU"
"<h1>どちらの単語が聞こえましたか</h1>","634","1","iden_exp","hana","deta","1","U","1","U","1","hanaU","hanaU","hanaU01-detaU01","128","10","visit","hanaU"
"<h1>どちらの単語が聞こえましたか</h1>","860","0","iden_exp","hana","deta","1","U","9","A","11","hanaU","hanaU","hanaU09-detaA11","130","10","visit","hanaU"
"<h1>どちらの単語が聞こえましたか</h1>","539","0","iden_exp","hana","deta","1","A","6","A","7","hanaA","hanaU","hanaA06-detaA07","132","10","visit","hanaA"
"<h1>どちらの単語が聞こえましたか</h1>","631","1","iden_exp","hana","deta","1","A","7","U","3","hanaA","hanaA","hanaA07-detaU03","134","10","visit","hanaA"
"<h1>どちらの単語が聞こえましたか</h1>","552","1","iden_exp","hana","deta","1","U","5","A","7","hanaU","hanaU","hanaU05-detaA07","136","10","visit","hanaU"
"<h1>どちらの単語が聞こえましたか</h1>","684","0","iden_exp","hana","deta","1","A","7","A","9","hanaA","hanaU","hanaA07-detaA09","138","11","visit","hanaA"
"<h1>どちらの単語が聞こえましたか</h1>","591","0","iden_exp","hana","deta","1","A","5","U","6","hanaA","hanaA","hanaA05-detaU06","140","11","visit","hanaA"
"<h1>どちらの単語が聞こえましたか</h1>","450","1","iden_exp","hana","deta","1","U","11","U","11","hanaU","hanaU","hanaU11-detaU11","142","11","visit","hanaU"
"<h1>どちらの単語が聞こえましたか</h1>","633","0","iden_exp","hana","deta","1","A","7","U","7","hanaA","hanaA","hanaA07-detaU07","144","11","visit","hanaA"
"<h1>どちらの単語が聞こえましたか</h1>","571","1","iden_exp","hana","deta","1","A","3","U","1","hanaA","hanaA","hanaA03-detaU01","146","11","visit","hanaA"
"<h1>どちらの単語が聞こえましたか</h1>","566","1","iden_exp","","","1","","","","","","","","148","12","visit",""
"<h1>どちらの単語が聞こえましたか</h1>","821","1","iden_exp","hana","deta","1","U","7","A","7","hanaU","hanaU","hanaU07-detaA07","150","12","visit","hanaU"
"<h1>どちらの単語が聞こえましたか</h1>","527","0","iden_exp","hana","deta","1","A","9","A","11","hanaA","hanaU","hanaA09-detaA11","152","12","visit","hanaA"
"<h1>どちらの単語が聞こえましたか</h1>","625","0","iden_exp","hana","deta","1","U","3","U","11","hanaU","hanaU","hanaU03-detaU11","154","12","visit","hanaU"
"<h1>どちらの単語が聞こえましたか</h1>","536","1","iden_exp","hana","deta","1","A","6","A","6","hanaA","hanaU","hanaA06-detaA06","156","12","visit","hanaU"
"<h1>どちらの単語が聞こえましたか</h1>","515","1","iden_exp","hana","deta","1","U","11","U","3","hanaU","hanaU","hanaU11-detaU03","158","13","visit","hanaU"
"<h1>どちらの単語が聞こえましたか</h1>","1189","1","iden_exp","hana","deta","1","U","3","U","9","hanaU","hanaU","hanaU03-detaU09","160","13","visit","hanaU"
"<h1>どちらの単語が聞こえましたか</h1>","496","0","iden_exp","hana","deta","1","U","1","U","11","hanaU","hanaU","hanaU01-detaU11","162","13","visit","hanaU"
"<h1>どちらの単語が聞こえましたか</h1>","798","0","iden_exp","hana","deta","1","A","6","A","9","hanaA","hanaU","hanaA06-detaA09","164","13","visit","hanaA"
"<h1>どちらの単語が聞こえましたか</h1>","671","1","iden_exp","hana","deta","1","A","1","U","3","hanaA","hanaA","hanaA01-detaU03","166","14","visit","hanaA"
"<h1>どちらの単語が聞こえましたか</h1>","519","1","iden_exp","hana","deta","1","U","9","U","9","hanaU","hanaU","hanaU09-detaU09","168","14","visit","hanaU"
"<h1>どちらの単語が聞こえましたか</h1>","542","1","iden_exp","hana","deta","1","U","1","U","5","hanaU","hanaU","hanaU01-detaU05","170","14","visit","hanaU"
"<h1>どちらの単語が聞こえましたか</h1>","758","0","iden_exp","hana","deta","1","U","3","A","11","hanaU","hanaU","hanaU03-detaA11","172","14","visit","hanaU"
"<h1>どちらの単語が聞こえましたか</h1>","518","0","iden_exp","hana","deta","1","A","6","A","11","hanaA","hanaU","hanaA06-detaA11","174","14","visit","hanaA"
"<h1>どちらの単語が聞こえましたか</h1>","564","0","iden_exp","hana","deta","1","A","7","U","5","hanaA","hanaA","hanaA07-detaU05","176","15","visit","hanaA"
"<h1>どちらの単語が聞こえましたか</h1>","1096","1","iden_exp","hana","deta","1","A","5","U","11","hanaA","hanaA","hanaA05-detaU11","178","15","visit","hanaA"
"<h1>どちらの単語が聞こえましたか</h1>","769","0","iden_exp","hana","deta","1","A","11","U","9","hanaA","hanaA","hanaA11-detaU09","180","15","visit","hanaA"
"<h1>どちらの単語が聞こえましたか</h1>","503","1","iden_exp","hana","deta","1","A","9","A","7","hanaA","hanaU","hanaA09-detaA07","182","15","visit","hanaU"
"<h1>どちらの単語が聞こえましたか</h1>","641","0","iden_exp","hana","deta","1","U","3","U","6","hanaU","hanaU","hanaU03-detaU06","184","15","visit","hanaU"
"<h1>どちらの単語が聞こえましたか</h1>","618","1","iden_exp","hana","deta","1","U","9","A","1","hanaU","hanaU","hanaU09-detaA01","186","15","visit","hanaU"
"<h1>どちらの単語が聞こえましたか</h1>","668","0","iden_exp","hana","deta","1","A","1","U","11","hanaA","hanaA","hanaA01-detaU11","188","15","visit","hanaA"
"<h1>どちらの単語が聞こえましたか</h1>","686","1","iden_exp","hana","deta","1","A","6","U","11","hanaA","hanaA","hanaA06-detaU11","190","15","visit","hanaA"
"<h1>どちらの単語が聞こえましたか</h1>","694","0","iden_exp","hana","deta","1","A","9","U","5","hanaA","hanaA","hanaA09-detaU05","192","15","visit","hanaA"
"<h1>どちらの単語が聞こえましたか</h1>","673","1","iden_exp","hana","deta","1","U","11","A","5","hanaU","hanaU","hanaU11-detaA05","194","15","visit","hanaU"
"<h1>どちらの単語が聞こえましたか</h1>","565","0","iden_exp","hana","deta","1","U","6","A","1","hanaU","hanaU","hanaU06-detaA01","196","15","visit","hanaU"
"<h1>どちらの単語が聞こえましたか</h1>","623","1","iden_exp","hana","deta","1","U","6","A","7","hanaU","hanaU","hanaU06-detaA07","198","15","visit","hanaU"
"<h1>どちらの単語が聞こえましたか</h1>","524","1","iden_exp","hana","deta","1","U","11","A","9","hanaU","hanaU","hanaU11-detaA09","200","15","visit","hanaU"
"<h1>どちらの単語が聞こえましたか</h1>","466","1","iden_exp","hana","deta","1","A","6","A","1","hanaA","hanaU","hanaA06-detaA01","202","15","visit","hanaU"
"<h1>どちらの単語が聞こえましたか</h1>","686","0","iden_exp","hana","deta","1","U","9","U","11","hanaU","hanaU","hanaU09-detaU11","204","16","visit","hanaU"
"<h1>どちらの単語が聞こえましたか</h1>","586","1","iden_exp","hana","deta","1","A","1","A","6","hanaA","hanaU","hanaA01-detaA06","206","16","visit","hanaU"
"<h1>どちらの単語が聞こえましたか</h1>","985","0","iden_exp","hana","deta","1","A","6","A","5","hanaA","hanaU","hanaA06-detaA05","208","16","visit","hanaA"
"<h1>どちらの単語が聞こえましたか</h1>","587","0","iden_exp","hana","deta","1","U","7","U","11","hanaU","hanaU","hanaU07-detaU11","210","16","visit","hanaU"
"<h1>どちらの単語が聞こえましたか</h1>","673","1","iden_exp","hana","deta","1","U","6","A","9","hanaU","hanaU","hanaU06-detaA09","212","16","visit","hanaU"
"<h1>どちらの単語が聞こえましたか</h1>","557","1","iden_exp","hana","deta","1","U","11","A","7","hanaU","hanaU","hanaU11-detaA07","214","17","visit","hanaU"
"<h1>どちらの単語が聞こえましたか</h1>","577","0","iden_exp","hana","deta","1","U","7","A","1","hanaU","hanaU","hanaU07-detaA01","216","17","visit","hanaU"
"<h1>どちらの単語が聞こえましたか</h1>","460","1","iden_exp","hana","deta","1","A","11","A","1","hanaA","hanaU","hanaA11-detaA01","218","17","visit","hanaU"
"<h1>どちらの単語が聞こえましたか</h1>","501","0","iden_exp","hana","deta","1","A","3","U","7","hanaA","hanaA","hanaA03-detaU07","220","17","visit","hanaA"
"<h1>どちらの単語が聞こえましたか</h1>","711","0","iden_exp","hana","deta","1","A","3","A","6","hanaA","hanaU","hanaA03-detaA06","222","18","visit","hanaA"
"<h1>どちらの単語が聞こえましたか</h1>","595","1","iden_exp","hana","deta","1","U","7","A","3","hanaU","hanaU","hanaU07-detaA03","224","18","visit","hanaU"
"<h1>どちらの単語が聞こえましたか</h1>","748","1","iden_exp","hana","deta","1","U","7","U","9","hanaU","hanaU","hanaU07-detaU09","226","18","visit","hanaU"
"<h1>どちらの単語が聞こえましたか</h1>","743","1","iden_exp","hana","deta","1","U","1","A","9","hanaU","hanaU","hanaU01-detaA09","228","18","visit","hanaU"
"<h1>どちらの単語が聞こえましたか</h1>","688","1","iden_exp","hana","deta","1","U","1","A","6","hanaU","hanaU","hanaU01-detaA06","230","19","visit","hanaU"
"<h1>どちらの単語が聞こえましたか</h1>","884","0","iden_exp","hana","deta","1","U","9","A","6","hanaU","hanaU","hanaU09-detaA06","232","19","visit","hanaU"
"<h1>どちらの単語が聞こえましたか</h1>","430","1","iden_exp","hana","deta","1","A","5","A","1","hanaA","hanaU","hanaA05-detaA01","234","19","visit","hanaU"
"<h1>どちらの単語が聞こえましたか</h1>","606","1","iden_exp","hana","deta","1","U","1","A","5","hanaU","hanaU","hanaU01-detaA05","236","19","visit","hanaU"
"<h1>どちらの単語が聞こえましたか</h1>","467","0","iden_exp","hana","deta","1","U","11","U","7","hanaU","hanaU","hanaU11-detaU07","238","19","visit","hanaU"
"<h1>どちらの単語が聞こえましたか</h1>","660","0","iden_exp","hana","deta","1","A","11","U","3","hanaA","hanaA","hanaA11-detaU03","240","20","visit","hanaA"
"<h1>どちらの単語が聞こえましたか</h1>","627","1","iden_exp","hana","deta","1","U","1","A","7","hanaU","hanaU","hanaU01-detaA07","242","20","visit","hanaU"
"<h1>どちらの単語が聞こえましたか</h1>","879","0","iden_exp","hana","deta","1","U","6","U","9","hanaU","hanaU","hanaU06-detaU09","244","20","visit","hanaU"
"<h1>どちらの単語が聞こえましたか</h1>","839","1","iden_exp","hana","deta","1","U","3","A","9","hanaU","hanaU","hanaU03-detaA09","246","20","visit","hanaU"
"<h1>どちらの単語が聞こえましたか</h1>","1000","0","iden_exp","hana","deta","1","A","5","U","5","hanaA","hanaA","hanaA05-detaU05","248","20","visit","hanaA"
"<h1>どちらの単語が聞こえましたか</h1>","575","0","iden_exp","hana","deta","1","U","3","A","3","hanaU","hanaU","hanaU03-detaA03","250","21","visit","hanaU"
"<h1>どちらの単語が聞こえましたか</h1>","668","0","iden_exp","hana","deta","1","A","1","A","3","hanaA","hanaU","hanaA01-detaA03","252","21","visit","hanaA"
"<h1>どちらの単語が聞こえましたか</h1>","679","1","iden_exp","hana","deta","1","U","9","A","3","hanaU","hanaU","hanaU09-detaA03","254","21","visit","hanaU"
"<h1>どちらの単語が聞こえましたか</h1>","704","1","iden_exp","hana","deta","1","A","7","U","1","hanaA","hanaA","hanaA07-detaU01","256","22","visit","hanaA"
"<h1>どちらの単語が聞こえましたか</h1>","637","0","iden_exp","hana","deta","1","A","1","U","1","hanaA","hanaA","hanaA01-detaU01","258","22","visit","hanaA"
"<h1>どちらの単語が聞こえましたか</h1>","668","0","iden_exp","hana","deta","1","A","3","A","5","hanaA","hanaU","hanaA03-detaA05","260","22","visit","hanaA"
"<h1>どちらの単語が聞こえましたか</h1>","857","1","iden_exp","hana","deta","1","U","7","A","6","hanaU","hanaU","hanaU07-detaA06","262","22","visit","hanaU"
"<h1>どちらの単語が聞こえましたか</h1>","574","0","iden_exp","hana","deta","1","A","11","A","11","hanaA","hanaU","hanaA11-detaA11","264","23","visit","hanaA"
"<h1>どちらの単語が聞こえましたか</h1>","479","1","iden_exp","hana","deta","1","A","7","A","7","hanaA","hanaU","hanaA07-detaA07","266","24","visit","hanaU"
"<h1>どちらの単語が聞こえましたか</h1>","576","1","iden_exp","hana","deta","1","A","6","U","5","hanaA","hanaA","hanaA06-detaU05","268","24","visit","hanaA"
"<h1>どちらの単語が聞こえましたか</h1>","553","0","iden_exp","hana","deta","1","A","5","U","3","hanaA","hanaA","hanaA05-detaU03","270","24","visit","hanaA"
"<h1>どちらの単語が聞こえましたか</h1>","579","0","iden_exp","hana","deta","1","A","11","U","5","hanaA","hanaA","hanaA11-detaU05","272","25","visit","hanaA"
"<h1>どちらの単語が聞こえましたか</h1>","571","1","iden_exp","hana","deta","1","A","5","A","11","hanaA","hanaU","hanaA05-detaA11","274","25","visit","hanaU"
"<h1>どちらの単語が聞こえましたか</h1>","1281","1","iden_exp","hana","deta","1","A","6","A","3","hanaA","hanaU","hanaA06-detaA03","276","25","visit","hanaU"
"<h1>どちらの単語が聞こえましたか</h1>","572","1","iden_exp","hana","deta","1","U","6","A","11","hanaU","hanaU","hanaU06-detaA11","278","25","visit","hanaU"
"<h1>どちらの単語が聞こえましたか</h1>","641","1","iden_exp","hana","deta","1","U","6","A","5","hanaU","hanaU","hanaU06-detaA05","280","26","visit","hanaU"
"<h1>どちらの単語が聞こえましたか</h1>","782","1","iden_exp","hana","deta","1","U","5","U","3","hanaU","hanaU","hanaU05-detaU03","282","26","visit","hanaU"
"<h1>どちらの単語が聞こえましたか</h1>","942","1","iden_exp","hana","deta","1","U","7","U","5","hanaU","hanaU","hanaU07-detaU05","284","26","visit","hanaU"
"<h1>どちらの単語が聞こえましたか</h1>","523","1","iden_exp","hana","deta","1","A","1","A","1","hanaA","hanaU","hanaA01-detaA01","286","26","visit","hanaU"
"<h1>どちらの単語が聞こえましたか</h1>","783","0","iden_exp","hana","deta","1","U","6","U","1","hanaU","hanaU","hanaU06-detaU01","288","27","visit","hanaU"
"<h1>どちらの単語が聞こえましたか</h1>","695","0","iden_exp","hana","deta","1","A","11","A","6","hanaA","hanaU","hanaA11-detaA06","290","27","visit","hanaA"
"<h1>どちらの単語が聞こえましたか</h1>","529","0","iden_exp","hana","deta","1","A","5","A","7","hanaA","hanaU","hanaA05-detaA07","292","27","visit","hanaA"
"<h1>どちらの単語が聞こえましたか</h1>","504","1","iden_exp","hana","deta","1","U","5","A","5","hanaU","hanaU","hanaU05-detaA05","294","27","visit","hanaU"
"<h1>どちらの単語が聞こえましたか</h1>","491","0","iden_exp","hana","deta","1","U","7","A","9","hanaU","hanaU","hanaU07-detaA09","296","28","visit","hanaU"
"<h1>どちらの単語が聞こえましたか</h1>","735","0","iden_exp","hana","deta","1","A","9","A","5","hanaA","hanaU","hanaA09-detaA05","298","28","visit","hanaA"
"<h1>どちらの単語が聞こえましたか</h1>","703","0","iden_exp","hana","deta","1","A","1","U","5","hanaA","hanaA","hanaA01-detaU05","300","28","visit","hanaA"
"<h1>どちらの単語が聞こえましたか</h1>","508","0","iden_exp","hana","deta","1","A","5","A","3","hanaA","hanaU","hanaA05-detaA03","302","28","visit","hanaA"
"<h1>どちらの単語が聞こえましたか</h1>","548","1","iden_exp","hana","deta","1","U","5","A","3","hanaU","hanaU","hanaU05-detaA03","304","28","visit","hanaU"
"<h1>どちらの単語が聞こえましたか</h1>","597","1","iden_exp","hana","deta","1","U","7","U","3","hanaU","hanaU","hanaU07-detaU03","306","29","visit","hanaU"
"<h1>どちらの単語が聞こえましたか</h1>","1334","0","iden_exp","hana","deta","1","A","1","A","7","hanaA","hanaU","hanaA01-detaA07","308","29","visit","hanaA"
"<h1>どちらの単語が聞こえましたか</h1>","613","1","iden_exp","hana","deta","1","U","7","A","5","hanaU","hanaU","hanaU07-detaA05","310","29","visit","hanaU"
"<h1>どちらの単語が聞こえましたか</h1>","545","1","iden_exp","hana","deta","1","A","3","U","3","hanaA","hanaA","hanaA03-detaU03","312","29","visit","hanaA"
"<h1>どちらの単語が聞こえましたか</h1>","582","0","iden_exp","hana","deta","1","A","6","U","6","hanaA","hanaA","hanaA06-detaU06","314","29","visit","hanaA"
"<h1>どちらの単語が聞こえましたか</h1>","533","0","iden_exp","hana","deta","1","U","1","A","11","hanaU","hanaU","hanaU01-detaA11","316","30","visit","hanaU"
"<h1>どちらの単語が聞こえましたか</h1>","614","0","iden_exp","hana","deta","1","U","3","U","5","hanaU","hanaU","hanaU03-detaU05","318","30","visit","hanaU"
"<h1>どちらの単語が聞こえましたか</h1>","474","1","iden_exp","hana","deta","1","U","1","U","6","hanaU","hanaU","hanaU01-detaU06","320","30","visit","hanaU"
"<h1>どちらの単語が聞こえましたか</h1>","765","0","iden_exp","hana","deta","1","A","3","U","6","hanaA","hanaA","hanaA03-detaU06","322","30","visit","hanaA"
"<h1>どちらの単語が聞こえましたか</h1>","878","1","iden_exp","hana","deta","1","U","5","A","9","hanaU","hanaU","hanaU05-detaA09","324","30","visit","hanaU"
"<h1>どちらの単語が聞こえましたか</h1>","608","1","iden_exp","hana","deta","1","U","6","U","7","hanaU","hanaU","hanaU06-detaU07","326","31","visit","hanaU"
"<h1>どちらの単語が聞こえましたか</h1>","544","1","iden_exp","hana","deta","1","U","6","U","6","hanaU","hanaU","hanaU06-detaU06","328","31","visit","hanaU"
"<h1>どちらの単語が聞こえましたか</h1>","611","0","iden_exp","hana","deta","1","A","7","U","11","hanaA","hanaA","hanaA07-detaU11","330","31","visit","hanaA"
"<h1>どちらの単語が聞こえましたか</h1>","510","0","iden_exp","hana","deta","1","A","9","A","3","hanaA","hanaU","hanaA09-detaA03","332","31","visit","hanaA"
"<h1>どちらの単語が聞こえましたか</h1>","593","0","iden_exp","hana","deta","1","A","11","A","9","hanaA","hanaU","hanaA11-detaA09","334","31","visit","hanaA"
"<h1>どちらの単語が聞こえましたか</h1>","913","0","iden_exp","hana","deta","1","U","1","U","7","hanaU","hanaU","hanaU01-detaU07","336","32","visit","hanaU"
"<h1>どちらの単語が聞こえましたか</h1>","484","0","iden_exp","hana","deta","1","U","5","U","7","hanaU","hanaU","hanaU05-detaU07","338","32","visit","hanaU"
"<h1>どちらの単語が聞こえましたか</h1>","722","1","iden_exp","hana","deta","1","U","3","A","6","hanaU","hanaU","hanaU03-detaA06","340","32","visit","hanaU"
"<h1>どちらの単語が聞こえましたか</h1>","566","0","iden_exp","hana","deta","1","A","3","U","9","hanaA","hanaA","hanaA03-detaU09","342","32","visit","hanaA"
"<h1>どちらの単語が聞こえましたか</h1>","753","1","iden_exp","hana","deta","1","A","1","A","5","hanaA","hanaU","hanaA01-detaA05","344","32","visit","hanaU"
"<h1>どちらの単語が聞こえましたか</h1>","589","0","iden_exp","hana","deta","1","A","5","A","9","hanaA","hanaU","hanaA05-detaA09","346","33","visit","hanaA"
"<h1>どちらの単語が聞こえましたか</h1>","860","1","iden_exp","hana","deta","1","U","7","A","11","hanaU","hanaU","hanaU07-detaA11","348","33","visit","hanaU"
"<h1>どちらの単語が聞こえましたか</h1>","906","0","iden_exp","hana","deta","1","A","11","A","7","hanaA","hanaU","hanaA11-detaA07","350","33","visit","hanaA"
"<h1>どちらの単語が聞こえましたか</h1>","675","0","iden_exp","hana","deta","1","U","9","U","3","hanaU","hanaU","hanaU09-detaU03","352","33","visit","hanaU"
"<h1>どちらの単語が聞こえましたか</h1>","529","1","iden_exp","hana","deta","1","U","5","U","9","hanaU","hanaU","hanaU05-detaU09","354","33","visit","hanaU"
"<h1>どちらの単語が聞こえましたか</h1>","558","1","iden_exp","hana","deta","1","U","3","U","1","hanaU","hanaU","hanaU03-detaU01","356","34","visit","hanaU"
"<h1>どちらの単語が聞こえましたか</h1>","410","1","iden_exp","hana","deta","1","A","5","U","1","hanaA","hanaA","hanaA05-detaU01","358","34","visit","hanaA"
"<h1>どちらの単語が聞こえましたか</h1>","745","1","iden_exp","hana","deta","1","A","3","A","9","hanaA","hanaU","hanaA03-detaA09","360","34","visit","hanaU"
"<h1>どちらの単語が聞こえましたか</h1>","693","0","iden_exp","hana","deta","1","A","9","A","6","hanaA","hanaU","hanaA09-detaA06","362","34","visit","hanaA"
"<h1>どちらの単語が聞こえましたか</h1>","639","1","iden_exp","hana","deta","1","A","6","U","9","hanaA","hanaA","hanaA06-detaU09","364","34","visit","hanaA"
"<h1>どちらの単語が聞こえましたか</h1>","485","0","iden_exp","hana","deta","1","A","1","U","7","hanaA","hanaA","hanaA01-detaU07","366","35","visit","hanaA"
"<h1>どちらの単語が聞こえましたか</h1>","692","0","iden_exp","hana","deta","1","A","1","A","9","hanaA","hanaU","hanaA01-detaA09","368","35","visit","hanaA"
"<h1>どちらの単語が聞こえましたか</h1>","791","0","iden_exp","hana","deta","1","A","7","A","11","hanaA","hanaU","hanaA07-detaA11","370","35","visit","hanaA"
"<h1>どちらの単語が聞こえましたか</h1>","483","0","iden_exp","hana","deta","1","A","11","A","5","hanaA","hanaU","hanaA11-detaA05","372","35","visit","hanaA"
"<h1>どちらの単語が聞こえましたか</h1>","626","0","iden_exp","hana","deta","1","A","1","U","9","hanaA","hanaA","hanaA01-detaU09","374","36","visit","hanaA"
"<h1>どちらの単語が聞こえましたか</h1>","542","0","iden_exp","hana","deta","1","A","9","U","6","hanaA","hanaA","hanaA09-detaU06","376","36","visit","hanaA"
"<h1>どちらの単語が聞こえましたか</h1>","571","1","iden_exp","hana","deta","1","U","5","A","1","hanaU","hanaU","hanaU05-detaA01","378","36","visit","hanaU"
"<h1>どちらの単語が聞こえましたか</h1>","613","0","iden_exp","hana","deta","1","U","6","A","6","hanaU","hanaU","hanaU06-detaA06","380","36","visit","hanaU"
"<h1>どちらの単語が聞こえましたか</h1>","651","1","iden_exp","hana","deta","1","A","7","U","9","hanaA","hanaA","hanaA07-detaU09","382","37","visit","hanaA"
"<h1>どちらの単語が聞こえましたか</h1>","685","1","iden_exp","hana","deta","1","U","1","U","3","hanaU","hanaU","hanaU01-detaU03","384","37","visit","hanaU"
"<h1>どちらの単語が聞こえましたか</h1>","591","1","iden_exp","hana","deta","1","A","5","A","6","hanaA","hanaU","hanaA05-detaA06","386","37","visit","hanaU"
"<h1>どちらの単語が聞こえましたか</h1>","518","1","iden_exp","hana","deta","1","A","3","A","7","hanaA","hanaU","hanaA03-detaA07","388","37","visit","hanaU"
"<h1>どちらの単語が聞こえましたか</h1>","570","0","iden_exp","hana","deta","1","U","11","U","1","hanaU","hanaU","hanaU11-detaU01","390","38","visit","hanaU"
"<h1>どちらの単語が聞こえましたか</h1>","1289","0","iden_exp","hana","deta","1","U","11","A","1","hanaU","hanaU","hanaU11-detaA01","392","38","visit","hanaU"
"<h1>どちらの単語が聞こえましたか</h1>","655","0","iden_exp","hana","deta","1","U","1","A","1","hanaU","hanaU","hanaU01-detaA01","394","38","visit","hanaU"
"<h1>どちらの単語が聞こえましたか</h1>","698","0","iden_exp","hana","deta","1","U","5","U","5","hanaU","hanaU","hanaU05-detaU05","396","39","visit","hanaU"
"<h1>どちらの単語が聞こえましたか</h1>","586","0","iden_exp","hana","deta","1","U","6","U","5","hanaU","hanaU","hanaU06-detaU05","398","39","visit","hanaU"
"<h1>どちらの単語が聞こえましたか</h1>","466","1","iden_exp","hana","deta","1","A","9","A","9","hanaA","hanaU","hanaA09-detaA09","400","39","visit","hanaU"
"<h1>どちらの単語が聞こえましたか</h1>","580","0","iden_exp","hana","deta","1","U","11","A","6","hanaU","hanaU","hanaU11-detaA06","402","39","visit","hanaU"
"<h1>どちらの単語が聞こえましたか</h1>","735","0","iden_exp","hana","deta","1","A","5","A","5","hanaA","hanaU","hanaA05-detaA05","404","40","visit","hanaA"
"<h1>どちらの単語が聞こえましたか</h1>","552","1","iden_exp","hana","deta","1","A","7","A","5","hanaA","hanaU","hanaA07-detaA05","406","40","visit","hanaU"
"<h1>どちらの単語が聞こえましたか</h1>","572","0","iden_exp","hana","deta","1","A","6","U","3","hanaA","hanaA","hanaA06-detaU03","408","40","visit","hanaA"
"<h1>どちらの単語が聞こえましたか</h1>","715","0","iden_exp","hana","deta","1","U","11","A","3","hanaU","hanaU","hanaU11-detaA03","410","41","visit","hanaU"
"<h1>どちらの単語が聞こえましたか</h1>","1294","0","iden_exp","hana","deta","1","A","11","U","1","hanaA","hanaA","hanaA11-detaU01","412","41","visit","hanaA"
"<h1>どちらの単語が聞こえましたか</h1>","783","0","iden_exp","hana","deta","1","U","3","A","7","hanaU","hanaU","hanaU03-detaA07","414","41","visit","hanaU"
"<h1>どちらの単語が聞こえましたか</h1>","630","0","iden_exp","hana","deta","2","U","11","U","5","hanaU","hanaU","hanaU11-detaU05","417","41","visit","hanaU"
"<h1>どちらの単語が聞こえましたか</h1>","743","1","iden_exp","hana","deta","2","U","1","U","3","hanaU","hanaU","hanaU01-detaU03","419","42","visit","hanaU"
"<h1>どちらの単語が聞こえましたか</h1>","507","1","iden_exp","hana","deta","2","U","9","A","6","hanaU","hanaU","hanaU09-detaA06","421","42","visit","hanaU"
"<h1>どちらの単語が聞こえましたか</h1>","626","1","iden_exp","hana","deta","2","A","9","U","7","hanaA","hanaA","hanaA09-detaU07","423","42","visit","hanaA"
"<h1>どちらの単語が聞こえましたか</h1>","560","1","iden_exp","hana","deta","2","U","6","A","11","hanaU","hanaU","hanaU06-detaA11","425","42","visit","hanaU"
"<h1>どちらの単語が聞こえましたか</h1>","601","0","iden_exp","hana","deta","2","A","1","U","7","hanaA","hanaA","hanaA01-detaU07","427","42","visit","hanaA"
"<h1>どちらの単語が聞こえましたか</h1>","653","0","iden_exp","hana","deta","2","A","7","U","6","hanaA","hanaA","hanaA07-detaU06","429","43","visit","hanaA"
"<h1>どちらの単語が聞こえましたか</h1>","533","1","iden_exp","hana","deta","2","A","3","U","1","hanaA","hanaA","hanaA03-detaU01","431","43","visit","hanaA"
"<h1>どちらの単語が聞こえましたか</h1>","528","1","iden_exp","hana","deta","2","U","9","U","6","hanaU","hanaU","hanaU09-detaU06","433","43","visit","hanaU"
"<h1>どちらの単語が聞こえましたか</h1>","528","1","iden_exp","hana","deta","2","A","9","U","5","hanaA","hanaA","hanaA09-detaU05","435","43","visit","hanaA"
"<h1>どちらの単語が聞こえましたか</h1>","754","0","iden_exp","hana","deta","2","U","5","U","3","hanaU","hanaU","hanaU05-detaU03","437","43","visit","hanaU"
"<h1>どちらの単語が聞こえましたか</h1>","598","1","iden_exp","hana","deta","2","A","9","A","7","hanaA","hanaU","hanaA09-detaA07","439","44","visit","hanaA"
"<h1>どちらの単語が聞こえましたか</h1>","970","1","iden_exp","hana","deta","2","A","5","A","6","hanaA","hanaU","hanaA05-detaA06","441","46","visit","hanaA"
"<h1>どちらの単語が聞こえましたか</h1>","684","1","iden_exp","hana","deta","2","U","1","U","9","hanaU","hanaU","hanaU01-detaU09","443","46","visit","hanaU"
"<h1>どちらの単語が聞こえましたか</h1>","693","1","iden_exp","hana","deta","2","A","5","A","7","hanaA","hanaU","hanaA05-detaA07","445","47","visit","hanaA"
"<h1>どちらの単語が聞こえましたか</h1>","558","1","iden_exp","hana","deta","2","A","5","U","5","hanaA","hanaA","hanaA05-detaU05","447","47","visit","hanaA"
"<h1>どちらの単語が聞こえましたか</h1>","832","0","iden_exp","hana","deta","2","U","6","U","11","hanaU","hanaU","hanaU06-detaU11","449","47","visit","hanaU"
"<h1>どちらの単語が聞こえましたか</h1>","754","0","iden_exp","hana","deta","2","U","1","A","7","hanaU","hanaU","hanaU01-detaA07","451","48","visit","hanaU"
"<h1>どちらの単語が聞こえましたか</h1>","759","0","iden_exp","hana","deta","2","A","7","U","3","hanaA","hanaA","hanaA07-detaU03","453","48","visit","hanaA"
"<h1>どちらの単語が聞こえましたか</h1>","692","0","iden_exp","hana","deta","2","U","3","U","11","hanaU","hanaU","hanaU03-detaU11","455","48","visit","hanaU"
"<h1>どちらの単語が聞こえましたか</h1>","656","0","iden_exp","hana","deta","2","U","3","A","9","hanaU","hanaU","hanaU03-detaA09","457","48","visit","hanaU"
"<h1>どちらの単語が聞こえましたか</h1>","539","1","iden_exp","hana","deta","2","A","11","A","3","hanaA","hanaU","hanaA11-detaA03","459","48","visit","hanaA"
"<h1>どちらの単語が聞こえましたか</h1>","639","0","iden_exp","hana","deta","2","U","3","U","5","hanaU","hanaU","hanaU03-detaU05","461","49","visit","hanaU"
"<h1>どちらの単語が聞こえましたか</h1>","573","0","iden_exp","hana","deta","2","A","5","A","1","hanaA","hanaU","hanaA05-detaA01","463","49","visit","hanaU"
"<h1>どちらの単語が聞こえましたか</h1>","570","1","iden_exp","hana","deta","2","A","11","U","11","hanaA","hanaA","hanaA11-detaU11","465","49","visit","hanaA"
"<h1>どちらの単語が聞こえましたか</h1>","595","0","iden_exp","hana","deta","2","U","11","A","9","hanaU","hanaU","hanaU11-detaA09","467","49","visit","hanaU"
"<h1>どちらの単語が聞こえましたか</h1>","651","1","iden_exp","hana","deta","2","U","9","U","9","hanaU","hanaU","hanaU09-detaU09","469","49","visit","hanaU"
"<h1>どちらの単語が聞こえましたか</h1>","670","0","iden_exp","hana","deta","2","U","7","A","1","hanaU","hanaU","hanaU07-detaA01","471","50","visit","hanaU"
"<h1>どちらの単語が聞こえましたか</h1>","550","1","iden_exp","hana","deta","2","U","7","U","5","hanaU","hanaU","hanaU07-detaU05","473","50","visit","hanaU"
"<h1>どちらの単語が聞こえましたか</h1>","629","0","iden_exp","hana","deta","2","U","9","U","1","hanaU","hanaU","hanaU09-detaU01","475","50","visit","hanaU"
"<h1>どちらの単語が聞こえましたか</h1>","636","1","iden_exp","hana","deta","2","U","9","U","3","hanaU","hanaU","hanaU09-detaU03","477","51","visit","hanaU"
"<h1>どちらの単語が聞こえましたか</h1>","555","0","iden_exp","hana","deta","2","U","6","U","5","hanaU","hanaU","hanaU06-detaU05","479","51","visit","hanaU"
"<h1>どちらの単語が聞こえましたか</h1>","743","0","iden_exp","hana","deta","2","A","1","A","3","hanaA","hanaU","hanaA01-detaA03","481","51","visit","hanaU"
"<h1>どちらの単語が聞こえましたか</h1>","595","1","iden_exp","hana","deta","2","A","3","A","6","hanaA","hanaU","hanaA03-detaA06","483","52","visit","hanaA"
"<h1>どちらの単語が聞こえましたか</h1>","566","1","iden_exp","hana","deta","2","U","5","U","7","hanaU","hanaU","hanaU05-detaU07","485","52","visit","hanaU"
"<h1>どちらの単語が聞こえましたか</h1>","634","1","iden_exp","hana","deta","2","U","11","A","1","hanaU","hanaU","hanaU11-detaA01","487","52","visit","hanaU"
"<h1>どちらの単語が聞こえましたか</h1>","750","1","iden_exp","hana","deta","2","A","9","A","6","hanaA","hanaU","hanaA09-detaA06","489","52","visit","hanaA"
"<h1>どちらの単語が聞こえましたか</h1>","615","0","iden_exp","hana","deta","2","A","9","U","1","hanaA","hanaA","hanaA09-detaU01","491","53","visit","hanaA"
"<h1>どちらの単語が聞こえましたか</h1>","501","1","iden_exp","hana","deta","2","U","5","U","6","hanaU","hanaU","hanaU05-detaU06","493","53","visit","hanaU"
"<h1>どちらの単語が聞こえましたか</h1>","647","1","iden_exp","hana","deta","2","U","7","A","3","hanaU","hanaU","hanaU07-detaA03","495","53","visit","hanaU"
"<h1>どちらの単語が聞こえましたか</h1>","678","0","iden_exp","hana","deta","2","A","11","A","7","hanaA","hanaU","hanaA11-detaA07","497","53","visit","hanaU"
"<h1>どちらの単語が聞こえましたか</h1>","806","0","iden_exp","hana","deta","2","U","1","U","6","hanaU","hanaU","hanaU01-detaU06","499","53","visit","hanaU"
"<h1>どちらの単語が聞こえましたか</h1>","473","0","iden_exp","hana","deta","2","A","3","U","9","hanaA","hanaA","hanaA03-detaU09","501","54","visit","hanaA"
"<h1>どちらの単語が聞こえましたか</h1>","524","0","iden_exp","hana","deta","2","U","7","U","1","hanaU","hanaU","hanaU07-detaU01","503","54","visit","hanaU"
"<h1>どちらの単語が聞こえましたか</h1>","735","1","iden_exp","hana","deta","2","A","3","A","1","hanaA","hanaU","hanaA03-detaA01","505","54","visit","hanaA"
"<h1>どちらの単語が聞こえましたか</h1>","659","1","iden_exp","hana","deta","2","U","11","U","7","hanaU","hanaU","hanaU11-detaU07","507","54","visit","hanaU"
"<h1>どちらの単語が聞こえましたか</h1>","528","1","iden_exp","hana","deta","2","U","3","U","3","hanaU","hanaU","hanaU03-detaU03","509","55","visit","hanaU"
"<h1>どちらの単語が聞こえましたか</h1>","1324","0","iden_exp","hana","deta","2","U","6","U","3","hanaU","hanaU","hanaU06-detaU03","511","55","visit","hanaU"
"<h1>どちらの単語が聞こえましたか</h1>","880","0","iden_exp","hana","deta","2","U","11","U","6","hanaU","hanaU","hanaU11-detaU06","513","56","visit","hanaU"
"<h1>どちらの単語が聞こえましたか</h1>","925","1","iden_exp","hana","deta","2","A","1","A","11","hanaA","hanaU","hanaA01-detaA11","515","56","visit","hanaA"
"<h1>どちらの単語が聞こえましたか</h1>","548","0","iden_exp","hana","deta","2","U","5","U","5","hanaU","hanaU","hanaU05-detaU05","517","56","visit","hanaU"
"<h1>どちらの単語が聞こえましたか</h1>","1071","0","iden_exp","hana","deta","2","A","5","A","9","hanaA","hanaU","hanaA05-detaA09","519","56","visit","hanaU"
"<h1>どちらの単語が聞こえましたか</h1>","554","0","iden_exp","hana","deta","2","A","1","U","5","hanaA","hanaA","hanaA01-detaU05","521","56","visit","hanaA"
"<h1>どちらの単語が聞こえましたか</h1>","850","1","iden_exp","hana","deta","2","A","6","U","11","hanaA","hanaA","hanaA06-detaU11","523","56","visit","hanaA"
"<h1>どちらの単語が聞こえましたか</h1>","752","0","iden_exp","hana","deta","2","A","3","A","5","hanaA","hanaU","hanaA03-detaA05","525","56","visit","hanaU"
"<h1>どちらの単語が聞こえましたか</h1>","701","0","iden_exp","hana","deta","2","A","3","A","11","hanaA","hanaU","hanaA03-detaA11","527","56","visit","hanaU"
"<h1>どちらの単語が聞こえましたか</h1>","791","0","iden_exp","hana","deta","2","U","6","U","7","hanaU","hanaU","hanaU06-detaU07","529","56","visit","hanaU"
"<h1>どちらの単語が聞こえましたか</h1>","727","0","iden_exp","hana","deta","2","A","7","A","6","hanaA","hanaU","hanaA07-detaA06","531","57","visit","hanaU"
"<h1>どちらの単語が聞こえましたか</h1>","538","1","iden_exp","hana","deta","2","A","9","U","11","hanaA","hanaA","hanaA09-detaU11","533","57","visit","hanaA"
"<h1>どちらの単語が聞こえましたか</h1>","752","1","iden_exp","hana","deta","2","A","6","A","1","hanaA","hanaU","hanaA06-detaA01","535","57","visit","hanaA"
"<h1>どちらの単語が聞こえましたか</h1>","681","0","iden_exp","hana","deta","2","U","6","U","6","hanaU","hanaU","hanaU06-detaU06","537","57","visit","hanaU"
"<h1>どちらの単語が聞こえましたか</h1>","568","1","iden_exp","hana","deta","2","U","6","A","7","hanaU","hanaU","hanaU06-detaA07","539","57","visit","hanaU"
"<h1>どちらの単語が聞こえましたか</h1>","434","0","iden_exp","hana","deta","2","U","9","U","7","hanaU","hanaU","hanaU09-detaU07","541","57","visit","hanaU"
"<h1>どちらの単語が聞こえましたか</h1>","670","0","iden_exp","hana","deta","2","U","5","A","1","hanaU","hanaU","hanaU05-detaA01","543","57","visit","hanaU"
"<h1>どちらの単語が聞こえましたか</h1>","555","0","iden_exp","hana","deta","2","U","3","U","6","hanaU","hanaU","hanaU03-detaU06","545","57","visit","hanaU"
"<h1>どちらの単語が聞こえましたか</h1>","439","1","iden_exp","hana","deta","2","U","3","A","7","hanaU","hanaU","hanaU03-detaA07","547","57","visit","hanaU"
"<h1>どちらの単語が聞こえましたか</h1>","542","0","iden_exp","hana","deta","2","U","11","A","3","hanaU","hanaU","hanaU11-detaA03","549","57","visit","hanaU"
"<h1>どちらの単語が聞こえましたか</h1>","503","0","iden_exp","hana","deta","2","U","9","A","9","hanaU","hanaU","hanaU09-detaA09","551","57","visit","hanaU"
"<h1>どちらの単語が聞こえましたか</h1>","642","1","iden_exp","hana","deta","2","A","6","U","6","hanaA","hanaA","hanaA06-detaU06","553","57","visit","hanaA"
"<h1>どちらの単語が聞こえましたか</h1>","492","1","iden_exp","hana","deta","2","A","11","U","1","hanaA","hanaA","hanaA11-detaU01","555","57","visit","hanaA"
"<h1>どちらの単語が聞こえましたか</h1>","450","1","iden_exp","hana","deta","2","U","1","A","9","hanaU","hanaU","hanaU01-detaA09","557","57","visit","hanaU"
"<h1>どちらの単語が聞こえましたか</h1>","525","0","iden_exp","hana","deta","2","U","9","U","5","hanaU","hanaU","hanaU09-detaU05","559","57","visit","hanaU"
"<h1>どちらの単語が聞こえましたか</h1>","649","0","iden_exp","hana","deta","2","U","6","A","3","hanaU","hanaU","hanaU06-detaA03","561","58","visit","hanaU"
"<h1>どちらの単語が聞こえましたか</h1>","975","1","iden_exp","hana","deta","2","A","11","U","9","hanaA","hanaA","hanaA11-detaU09","563","58","visit","hanaA"
"<h1>どちらの単語が聞こえましたか</h1>","652","0","iden_exp","hana","deta","2","A","9","U","9","hanaA","hanaA","hanaA09-detaU09","565","58","visit","hanaA"
"<h1>どちらの単語が聞こえましたか</h1>","576","1","iden_exp","hana","deta","2","A","9","A","1","hanaA","hanaU","hanaA09-detaA01","567","58","visit","hanaA"
"<h1>どちらの単語が聞こえましたか</h1>","832","0","iden_exp","","","2","","","","","","","","569","58","visit",""
"<h1>どちらの単語が聞こえましたか</h1>","750","1","iden_exp","hana","deta","2","U","7","U","3","hanaU","hanaU","hanaU07-detaU03","571","58","visit","hanaU"
"<h1>どちらの単語が聞こえましたか</h1>","723","0","iden_exp","hana","deta","2","A","1","A","1","hanaA","hanaU","hanaA01-detaA01","573","58","visit","hanaU"
"<h1>どちらの単語が聞こえましたか</h1>","736","1","iden_exp","hana","deta","2","A","7","U","11","hanaA","hanaA","hanaA07-detaU11","575","58","visit","hanaA"
"<h1>どちらの単語が聞こえましたか</h1>","584","1","iden_exp","hana","deta","2","A","6","U","1","hanaA","hanaA","hanaA06-detaU01","577","58","visit","hanaA"
"<h1>どちらの単語が聞こえましたか</h1>","649","1","iden_exp","hana","deta","2","U","9","A","5","hanaU","hanaU","hanaU09-detaA05","579","58","visit","hanaU"
"<h1>どちらの単語が聞こえましたか</h1>","682","1","iden_exp","hana","deta","2","A","11","U","7","hanaA","hanaA","hanaA11-detaU07","581","58","visit","hanaA"
"<h1>どちらの単語が聞こえましたか</h1>","541","1","iden_exp","hana","deta","2","U","7","A","5","hanaU","hanaU","hanaU07-detaA05","583","58","visit","hanaU"
"<h1>どちらの単語が聞こえましたか</h1>","1305","1","iden_exp","hana","deta","2","A","3","A","9","hanaA","hanaU","hanaA03-detaA09","585","58","visit","hanaA"
"<h1>どちらの単語が聞こえましたか</h1>","463","1","iden_exp","hana","deta","2","A","1","A","7","hanaA","hanaU","hanaA01-detaA07","587","58","visit","hanaA"
"<h1>どちらの単語が聞こえましたか</h1>","629","1","iden_exp","hana","deta","2","U","3","U","7","hanaU","hanaU","hanaU03-detaU07","589","58","visit","hanaU"
"<h1>どちらの単語が聞こえましたか</h1>","582","1","iden_exp","hana","deta","2","A","5","U","3","hanaA","hanaA","hanaA05-detaU03","591","58","visit","hanaA"
"<h1>どちらの単語が聞こえましたか</h1>","587","0","iden_exp","hana","deta","2","A","3","A","3","hanaA","hanaU","hanaA03-detaA03","593","58","visit","hanaU"
"<h1>どちらの単語が聞こえましたか</h1>","523","1","iden_exp","hana","deta","2","U","5","A","3","hanaU","hanaU","hanaU05-detaA03","595","59","visit","hanaU"
"<h1>どちらの単語が聞こえましたか</h1>","592","0","iden_exp","hana","deta","2","A","3","U","7","hanaA","hanaA","hanaA03-detaU07","597","59","visit","hanaA"
"<h1>どちらの単語が聞こえましたか</h1>","533","0","iden_exp","hana","deta","2","A","7","A","11","hanaA","hanaU","hanaA07-detaA11","599","59","visit","hanaU"
"<h1>どちらの単語が聞こえましたか</h1>","654","0","iden_exp","hana","deta","2","U","1","A","1","hanaU","hanaU","hanaU01-detaA01","601","59","visit","hanaU"
"<h1>どちらの単語が聞こえましたか</h1>","570","0","iden_exp","hana","deta","2","A","3","U","6","hanaA","hanaA","hanaA03-detaU06","603","59","visit","hanaA"
"<h1>どちらの単語が聞こえましたか</h1>","898","1","iden_exp","hana","deta","2","U","1","A","6","hanaU","hanaU","hanaU01-detaA06","605","59","visit","hanaU"
"<h1>どちらの単語が聞こえましたか</h1>","456","1","iden_exp","hana","deta","2","U","11","A","6","hanaU","hanaU","hanaU11-detaA06","607","59","visit","hanaU"
"<h1>どちらの単語が聞こえましたか</h1>","667","1","iden_exp","hana","deta","2","A","6","A","7","hanaA","hanaU","hanaA06-detaA07","609","59","visit","hanaA"
"<h1>どちらの単語が聞こえましたか</h1>","622","1","iden_exp","hana","deta","2","U","11","A","5","hanaU","hanaU","hanaU11-detaA05","611","59","visit","hanaU"
"<h1>どちらの単語が聞こえましたか</h1>","557","0","iden_exp","hana","deta","2","A","3","U","5","hanaA","hanaA","hanaA03-detaU05","613","59","visit","hanaA"
"<h1>どちらの単語が聞こえましたか</h1>","584","1","iden_exp","hana","deta","2","A","7","A","9","hanaA","hanaU","hanaA07-detaA09","615","59","visit","hanaA"
"<h1>どちらの単語が聞こえましたか</h1>","763","0","iden_exp","hana","deta","2","U","1","U","7","hanaU","hanaU","hanaU01-detaU07","617","59","visit","hanaU"
"<h1>どちらの単語が聞こえましたか</h1>","848","0","iden_exp","hana","deta","2","A","5","U","7","hanaA","hanaA","hanaA05-detaU07","619","59","visit","hanaA"
"<h1>どちらの単語が聞こえましたか</h1>","537","0","iden_exp","hana","deta","2","U","1","U","11","hanaU","hanaU","hanaU01-detaU11","621","59","visit","hanaU"
"<h1>どちらの単語が聞こえましたか</h1>","595","0","iden_exp","hana","deta","2","U","7","A","11","hanaU","hanaU","hanaU07-detaA11","623","59","visit","hanaU"
"<h1>どちらの単語が聞こえましたか</h1>","601","0","iden_exp","hana","deta","2","U","3","A","11","hanaU","hanaU","hanaU03-detaA11","625","59","visit","hanaU"
"<h1>どちらの単語が聞こえましたか</h1>","895","0","iden_exp","hana","deta","2","U","1","A","11","hanaU","hanaU","hanaU01-detaA11","627","60","visit","hanaU"
"<h1>どちらの単語が聞こえましたか</h1>","668","0","iden_exp","hana","deta","2","A","11","A","1","hanaA","hanaU","hanaA11-detaA01","629","60","visit","hanaU"
"<h1>どちらの単語が聞こえましたか</h1>","528","0","iden_exp","hana","deta","2","A","11","A","5","hanaA","hanaU","hanaA11-detaA05","631","60","visit","hanaU"
"<h1>どちらの単語が聞こえましたか</h1>","641","0","iden_exp","hana","deta","2","U","11","A","11","hanaU","hanaU","hanaU11-detaA11","633","60","visit","hanaU"
"<h1>どちらの単語が聞こえましたか</h1>","609","0","iden_exp","hana","deta","2","U","1","A","5","hanaU","hanaU","hanaU01-detaA05","635","60","visit","hanaU"
"<h1>どちらの単語が聞こえましたか</h1>","468","0","iden_exp","hana","deta","2","U","3","A","1","hanaU","hanaU","hanaU03-detaA01","637","61","visit","hanaU"
"<h1>どちらの単語が聞こえましたか</h1>","709","0","iden_exp","hana","deta","2","U","3","U","9","hanaU","hanaU","hanaU03-detaU09","639","61","visit","hanaU"
"<h1>どちらの単語が聞こえましたか</h1>","604","0","iden_exp","hana","deta","2","A","1","A","9","hanaA","hanaU","hanaA01-detaA09","641","61","visit","hanaU"
"<h1>どちらの単語が聞こえましたか</h1>","511","1","iden_exp","hana","deta","2","U","5","A","9","hanaU","hanaU","hanaU05-detaA09","643","61","visit","hanaU"
"<h1>どちらの単語が聞こえましたか</h1>","536","1","iden_exp","hana","deta","2","A","5","U","1","hanaA","hanaA","hanaA05-detaU01","645","61","visit","hanaA"
"<h1>どちらの単語が聞こえましたか</h1>","660","0","iden_exp","hana","deta","2","A","5","A","5","hanaA","hanaU","hanaA05-detaA05","647","61","visit","hanaU"
"<h1>どちらの単語が聞こえましたか</h1>","471","0","iden_exp","hana","deta","2","A","3","U","3","hanaA","hanaA","hanaA03-detaU03","649","61","visit","hanaA"
"<h1>どちらの単語が聞こえましたか</h1>","614","0","iden_exp","hana","deta","2","A","6","A","3","hanaA","hanaU","hanaA06-detaA03","651","61","visit","hanaU"
"<h1>どちらの単語が聞こえましたか</h1>","491","0","iden_exp","hana","deta","2","A","6","U","7","hanaA","hanaA","hanaA06-detaU07","653","61","visit","hanaA"
"<h1>どちらの単語が聞こえましたか</h1>","612","1","iden_exp","hana","deta","2","A","6","A","6","hanaA","hanaU","hanaA06-detaA06","655","61","visit","hanaA"
"<h1>どちらの単語が聞こえましたか</h1>","600","1","iden_exp","hana","deta","2","A","5","U","9","hanaA","hanaA","hanaA05-detaU09","657","61","visit","hanaA"
"<h1>どちらの単語が聞こえましたか</h1>","624","1","iden_exp","hana","deta","2","A","7","U","5","hanaA","hanaA","hanaA07-detaU05","659","61","visit","hanaA"
"<h1>どちらの単語が聞こえましたか</h1>","637","1","iden_exp","hana","deta","2","A","5","U","6","hanaA","hanaA","hanaA05-detaU06","661","61","visit","hanaA"
"<h1>どちらの単語が聞こえましたか</h1>","728","0","iden_exp","hana","deta","2","A","1","A","5","hanaA","hanaU","hanaA01-detaA05","663","61","visit","hanaU"
"<h1>どちらの単語が聞こえましたか</h1>","527","1","iden_exp","hana","deta","2","U","11","A","7","hanaU","hanaU","hanaU11-detaA07","665","61","visit","hanaU"
"<h1>どちらの単語が聞こえましたか</h1>","680","0","iden_exp","hana","deta","2","A","7","A","7","hanaA","hanaU","hanaA07-detaA07","667","61","visit","hanaU"
"<h1>どちらの単語が聞こえましたか</h1>","569","0","iden_exp","hana","deta","2","U","3","A","5","hanaU","hanaU","hanaU03-detaA05","669","62","visit","hanaU"
"<h1>どちらの単語が聞こえましたか</h1>","701","0","iden_exp","hana","deta","2","A","7","A","5","hanaA","hanaU","hanaA07-detaA05","671","62","visit","hanaU"
"<h1>どちらの単語が聞こえましたか</h1>","682","0","iden_exp","hana","deta","2","A","7","U","7","hanaA","hanaA","hanaA07-detaU07","673","62","visit","hanaA"
"<h1>どちらの単語が聞こえましたか</h1>","720","1","iden_exp","hana","deta","2","A","1","U","1","hanaA","hanaA","hanaA01-detaU01","675","62","visit","hanaA"
"<h1>どちらの単語が聞こえましたか</h1>","772","1","iden_exp","hana","deta","2","A","1","U","6","hanaA","hanaA","hanaA01-detaU06","677","62","visit","hanaA"
"<h1>どちらの単語が聞こえましたか</h1>","682","1","iden_exp","hana","deta","2","U","9","U","11","hanaU","hanaU","hanaU09-detaU11","679","62","visit","hanaU"
"<h1>どちらの単語が聞こえましたか</h1>","862","0","iden_exp","hana","deta","2","U","5","A","6","hanaU","hanaU","hanaU05-detaA06","681","62","visit","hanaU"
"<h1>どちらの単語が聞こえましたか</h1>","683","0","iden_exp","hana","deta","2","U","7","A","7","hanaU","hanaU","hanaU07-detaA07","683","62","visit","hanaU"
"<h1>どちらの単語が聞こえましたか</h1>","630","1","iden_exp","hana","deta","2","A","11","A","9","hanaA","hanaU","hanaA11-detaA09","685","62","visit","hanaA"
"<h1>どちらの単語が聞こえましたか</h1>","455","0","iden_exp","hana","deta","2","A","7","A","1","hanaA","hanaU","hanaA07-detaA01","687","62","visit","hanaU"
"<h1>どちらの単語が聞こえましたか</h1>","662","0","iden_exp","hana","deta","2","U","9","A","1","hanaU","hanaU","hanaU09-detaA01","689","62","visit","hanaU"
"<h1>どちらの単語が聞こえましたか</h1>","625","1","iden_exp","hana","deta","2","A","1","U","11","hanaA","hanaA","hanaA01-detaU11","691","62","visit","hanaA"
"<h1>どちらの単語が聞こえましたか</h1>","547","1","iden_exp","hana","deta","2","A","1","U","9","hanaA","hanaA","hanaA01-detaU09","693","62","visit","hanaA"
"<h1>どちらの単語が聞こえましたか</h1>","576","0","iden_exp","hana","deta","2","U","1","A","3","hanaU","hanaU","hanaU01-detaA03","695","62","visit","hanaU"
"<h1>どちらの単語が聞こえましたか</h1>","564","0","iden_exp","hana","deta","2","U","5","A","11","hanaU","hanaU","hanaU05-detaA11","697","62","visit","hanaU"
"<h1>どちらの単語が聞こえましたか</h1>","620","0","iden_exp","hana","deta","2","A","9","A","11","hanaA","hanaU","hanaA09-detaA11","699","62","visit","hanaU"
"<h1>どちらの単語が聞こえましたか</h1>","567","1","iden_exp","hana","deta","2","U","1","U","5","hanaU","hanaU","hanaU01-detaU05","701","62","visit","hanaU"
"<h1>どちらの単語が聞こえましたか</h1>","755","1","iden_exp","hana","deta","2","A","11","U","5","hanaA","hanaA","hanaA11-detaU05","703","63","visit","hanaA"
"<h1>どちらの単語が聞こえましたか</h1>","497","1","iden_exp","hana","deta","2","A","9","A","3","hanaA","hanaU","hanaA09-detaA03","705","63","visit","hanaA"
"<h1>どちらの単語が聞こえましたか</h1>","572","0","iden_exp","hana","deta","2","A","3","A","7","hanaA","hanaU","hanaA03-detaA07","707","63","visit","hanaU"
"<h1>どちらの単語が聞こえましたか</h1>","690","1","iden_exp","hana","deta","2","U","3","A","6","hanaU","hanaU","hanaU03-detaA06","709","63","visit","hanaU"
"<h1>どちらの単語が聞こえましたか</h1>","698","1","iden_exp","hana","deta","2","A","6","A","11","hanaA","hanaU","hanaA06-detaA11","711","63","visit","hanaA"
"<h1>どちらの単語が聞こえましたか</h1>","651","1","iden_exp","hana","deta","2","U","6","U","1","hanaU","hanaU","hanaU06-detaU01","713","64","visit","hanaU"
"<h1>どちらの単語が聞こえましたか</h1>","512","1","iden_exp","hana","deta","2","U","6","A","6","hanaU","hanaU","hanaU06-detaA06","715","64","visit","hanaU"
"<h1>どちらの単語が聞こえましたか</h1>","580","1","iden_exp","hana","deta","2","A","11","A","11","hanaA","hanaU","hanaA11-detaA11","717","65","visit","hanaA"
"<h1>どちらの単語が聞こえましたか</h1>","571","0","iden_exp","hana","deta","2","U","11","U","1","hanaU","hanaU","hanaU11-detaU01","719","65","visit","hanaU"
"<h1>どちらの単語が聞こえましたか</h1>","743","0","iden_exp","hana","deta","2","U","6","A","5","hanaU","hanaU","hanaU06-detaA05","721","65","visit","hanaU"
"<h1>どちらの単語が聞こえましたか</h1>","522","1","iden_exp","hana","deta","2","A","6","A","5","hanaA","hanaU","hanaA06-detaA05","723","65","visit","hanaA"
"<h1>どちらの単語が聞こえましたか</h1>","987","1","iden_exp","hana","deta","2","U","5","A","5","hanaU","hanaU","hanaU05-detaA05","725","66","visit","hanaU"
"<h1>どちらの単語が聞こえましたか</h1>","639","0","iden_exp","hana","deta","2","U","5","U","1","hanaU","hanaU","hanaU05-detaU01","727","66","visit","hanaU"
"<h1>どちらの単語が聞こえましたか</h1>","685","0","iden_exp","hana","deta","2","U","6","A","9","hanaU","hanaU","hanaU06-detaA09","729","66","visit","hanaU"
"<h1>どちらの単語が聞こえましたか</h1>","651","1","iden_exp","hana","deta","2","U","3","A","3","hanaU","hanaU","hanaU03-detaA03","731","66","visit","hanaU"
"<h1>どちらの単語が聞こえましたか</h1>","605","1","iden_exp","hana","deta","2","U","6","U","9","hanaU","hanaU","hanaU06-detaU09","733","66","visit","hanaU"
"<h1>どちらの単語が聞こえましたか</h1>","486","0","iden_exp","hana","deta","2","U","5","U","11","hanaU","hanaU","hanaU05-detaU11","735","67","visit","hanaU"
"<h1>どちらの単語が聞こえましたか</h1>","539","1","iden_exp","hana","deta","2","U","7","U","9","hanaU","hanaU","hanaU07-detaU09","737","67","visit","hanaU"
"<h1>どちらの単語が聞こえましたか</h1>","584","1","iden_exp","hana","deta","2","A","9","A","9","hanaA","hanaU","hanaA09-detaA09","739","67","visit","hanaA"
"<h1>どちらの単語が聞こえましたか</h1>","636","1","iden_exp","hana","deta","2","U","5","U","9","hanaU","hanaU","hanaU05-detaU09","741","67","visit","hanaU"
"<h1>どちらの単語が聞こえましたか</h1>","517","0","iden_exp","hana","deta","2","A","11","U","3","hanaA","hanaA","hanaA11-detaU03","743","67","visit","hanaA"
"<h1>どちらの単語が聞こえましたか</h1>","667","1","iden_exp","hana","deta","2","U","1","U","1","hanaU","hanaU","hanaU01-detaU01","745","68","visit","hanaU"
"<h1>どちらの単語が聞こえましたか</h1>","448","0","iden_exp","hana","deta","2","U","9","A","3","hanaU","hanaU","hanaU09-detaA03","747","68","visit","hanaU"
"<h1>どちらの単語が聞こえましたか</h1>","733","0","iden_exp","hana","deta","2","U","7","U","7","hanaU","hanaU","hanaU07-detaU07","749","68","visit","hanaU"
"<h1>どちらの単語が聞こえましたか</h1>","495","1","iden_exp","hana","deta","2","A","7","U","1","hanaA","hanaA","hanaA07-detaU01","751","68","visit","hanaA"
"<h1>どちらの単語が聞こえましたか</h1>","625","0","iden_exp","hana","deta","2","A","9","U","6","hanaA","hanaA","hanaA09-detaU06","753","68","visit","hanaA"
"<h1>どちらの単語が聞こえましたか</h1>","593","0","iden_exp","hana","deta","2","A","7","A","3","hanaA","hanaU","hanaA07-detaA03","755","69","visit","hanaU"
"<h1>どちらの単語が聞こえましたか</h1>","858","1","iden_exp","hana","deta","2","A","5","A","11","hanaA","hanaU","hanaA05-detaA11","757","69","visit","hanaA"
"<h1>どちらの単語が聞こえましたか</h1>","819","1","iden_exp","hana","deta","2","A","9","U","3","hanaA","hanaA","hanaA09-detaU03","759","69","visit","hanaA"
"<h1>どちらの単語が聞こえましたか</h1>","616","0","iden_exp","hana","deta","2","U","9","A","7","hanaU","hanaU","hanaU09-detaA07","761","69","visit","hanaU"
"<h1>どちらの単語が聞こえましたか</h1>","582","0","iden_exp","hana","deta","2","A","11","U","6","hanaA","hanaA","hanaA11-detaU06","763","70","visit","hanaA"
"<h1>どちらの単語が聞こえましたか</h1>","605","1","iden_exp","hana","deta","2","A","1","U","3","hanaA","hanaA","hanaA01-detaU03","765","70","visit","hanaA"
"<h1>どちらの単語が聞こえましたか</h1>","508","0","iden_exp","hana","deta","2","A","6","U","3","hanaA","hanaA","hanaA06-detaU03","767","70","visit","hanaA"
"<h1>どちらの単語が聞こえましたか</h1>","787","0","iden_exp","hana","deta","2","U","7","U","6","hanaU","hanaU","hanaU07-detaU06","769","70","visit","hanaU"
"<h1>どちらの単語が聞こえましたか</h1>","834","1","iden_exp","hana","deta","2","A","6","A","9","hanaA","hanaU","hanaA06-detaA09","771","71","visit","hanaA"
"<h1>どちらの単語が聞こえましたか</h1>","583","0","iden_exp","hana","deta","2","A","5","U","11","hanaA","hanaA","hanaA05-detaU11","773","71","visit","hanaA"
"<h1>どちらの単語が聞こえましたか</h1>","531","0","iden_exp","hana","deta","2","U","7","A","9","hanaU","hanaU","hanaU07-detaA09","775","71","visit","hanaU"
"<h1>どちらの単語が聞こえましたか</h1>","567","0","iden_exp","hana","deta","2","U","11","U","3","hanaU","hanaU","hanaU11-detaU03","777","72","visit","hanaU"
"<h1>どちらの単語が聞こえましたか</h1>","503","0","iden_exp","hana","deta","2","A","1","A","6","hanaA","hanaU","hanaA01-detaA06","779","72","visit","hanaU"
"<h1>どちらの単語が聞こえましたか</h1>","482","1","iden_exp","hana","deta","2","U","5","A","7","hanaU","hanaU","hanaU05-detaA07","781","73","visit","hanaU"
"<h1>どちらの単語が聞こえましたか</h1>","577","1","iden_exp","hana","deta","2","A","7","U","9","hanaA","hanaA","hanaA07-detaU09","783","73","visit","hanaA"
"<h1>どちらの単語が聞こえましたか</h1>","712","0","iden_exp","hana","deta","2","U","9","A","11","hanaU","hanaU","hanaU09-detaA11","785","73","visit","hanaU"
"<h1>どちらの単語が聞こえましたか</h1>","539","0","iden_exp","hana","deta","2","A","9","A","5","hanaA","hanaU","hanaA09-detaA05","787","74","visit","hanaU"
"<h1>どちらの単語が聞こえましたか</h1>","531","0","iden_exp","hana","deta","2","U","3","U","1","hanaU","hanaU","hanaU03-detaU01","789","74","visit","hanaU"
"<h1>どちらの単語が聞こえましたか</h1>","546","0","iden_exp","hana","deta","2","A","3","U","11","hanaA","hanaA","hanaA03-detaU11","791","74","visit","hanaA"
"<h1>どちらの単語が聞こえましたか</h1>","722","1","iden_exp","hana","deta","2","U","6","A","1","hanaU","hanaU","hanaU06-detaA01","793","74","visit","hanaU"
"<h1>どちらの単語が聞こえましたか</h1>","531","1","iden_exp","hana","deta","2","U","11","U","9","hanaU","hanaU","hanaU11-detaU09","795","75","visit","hanaU"
"<h1>どちらの単語が聞こえましたか</h1>","492","0","iden_exp","hana","deta","2","U","7","A","6","hanaU","hanaU","hanaU07-detaA06","797","75","visit","hanaU"
"<h1>どちらの単語が聞こえましたか</h1>","515","0","iden_exp","hana","deta","2","A","6","U","9","hanaA","hanaA","hanaA06-detaU09","799","75","visit","hanaA"
"<h1>どちらの単語が聞こえましたか</h1>","500","0","iden_exp","hana","deta","2","U","11","U","11","hanaU","hanaU","hanaU11-detaU11","801","75","visit","hanaU"
"<h1>どちらの単語が聞こえましたか</h1>","687","0","iden_exp","hana","deta","2","A","5","A","3","hanaA","hanaU","hanaA05-detaA03","803","75","visit","hanaU"
"<h1>どちらの単語が聞こえましたか</h1>","803","1","iden_exp","hana","deta","2","A","6","U","5","hanaA","hanaA","hanaA06-detaU05","805","76","visit","hanaA"
"<h1>どちらの単語が聞こえましたか</h1>","505","1","iden_exp","hana","deta","2","U","7","U","11","hanaU","hanaU","hanaU07-detaU11","807","76","visit","hanaU"
"<h1>どちらの単語が聞こえましたか</h1>","614","0","iden_exp","hana","deta","2","A","11","A","6","hanaA","hanaU","hanaA11-detaA06","809","76","visit","hanaU"
