"stimulus","rt","response","phase","word","carrier","block","wordAccent","wordAccentStep","carrierAccent","carrierAccentStep","option_0","option_1","sound","trial_index","time_elapsed","participantID","answer"
"<h1>どちらの単語が聞こえましたか</h1>","781","1","practice","hana","deta","2","A","1","","1","hanaA","hanaU","hanaA01-detaA01","4","2","another bottle garden frozen anywhere","hanaU"
"<h1>どちらの単語が聞こえましたか</h1>","729","0","practice","hana","deta","2","A","11","","11","hanaA","hanaU","hanaA11-detaA11","6","2","another bottle garden frozen anywhere","hanaA"
"<h1>どちらの単語が聞こえましたか</h1>","560","1","practice","hana","deta","2","U","1","","1","hanaA","hanaU","hanaU01-detaU01","8","3","another bottle garden frozen anywhere","hanaU"
"<h1>どちらの単語が聞こえましたか</h1>","479","0","practice","hana","deta","2","U","11","","11","hanaA","hanaU","hanaU11-detaU11","10","3","another bottle garden frozen anywhere","hanaA"
"<h1>どちらの単語が聞こえましたか</h1>","502","1","practice","hana","deta","2","A","1","","1","hanaA","hanaU","hanaA01-detaU01","13","3","another bottle garden frozen anywhere","hanaA"
"<h1>どちらの単語が聞こえましたか</h1>","569","0","practice","hana","deta","2","A","11","","11","hanaA","hanaU","hanaA11-detaU11","15","3","another bottle garden frozen anywhere","hanaU"
"<h1>どちらの単語が聞こえましたか</h1>","553","1","practice","hana","deta","2","U","1","","1","hanaA","hanaU","hanaU01-detaA01","17","3","another bottle garden frozen anywhere","hanaA"
"<h1>どちらの単語が聞こえましたか</h1>","640","1","practice","hana","deta","2","U","11","","11","hanaA","hanaU","hanaU11-detaA11","19","3","another bottle garden frozen anywhere","hanaA"
"<h1>どちらの単語が聞こえましたか</h1>","806","0","iden_exp","hana","deta","1","U","1","","11","hanaU","hanaU","hanaU01-detaU11","22","3","another bottle garden frozen anywhere","hanaU"
"<h1>どちらの単語が聞こえましたか</h1>","637","0","iden_exp","hana","deta","1","A","9","","3","hanaA","hanaU","hanaA09-detaA03","24","3","another bottle garden frozen anywhere","hanaA"
"<h1>どちらの単語が聞こえましたか</h1>","538","1","iden_exp","hana","deta","1","U","11","","11","hanaU","hanaU","hanaU11-detaA11","26","4","another bottle garden frozen anywhere","hanaU"
"<h1>どちらの単語が聞こえましたか</h1>","596","1","iden_exp","hana","deta","1","U","7","","6","hanaU","hanaU","hanaU07-detaA06","28","4","another bottle garden frozen anywhere","hanaU"
"<h1>どちらの単語が聞こえましたか</h1>","1176","0","iden_exp","hana","deta","1","A","5","","7","hanaA","hanaU","hanaA05-detaA07","30","4","another bottle garden frozen anywhere","hanaA"
"<h1>どちらの単語が聞こえましたか</h1>","710","1","iden_exp","hana","deta","1","U","7","","6","hanaU","hanaU","hanaU07-detaU06","32","4","another bottle garden frozen anywhere","hanaU"
"<h1>どちらの単語が聞こえましたか</h1>","546","1","iden_exp","hana","deta","1","A","3","","6","hanaA","hanaU","hanaA03-detaA06","34","4","another bottle garden frozen anywhere","hanaU"
"<h1>どちらの単語が聞こえましたか</h1>","622","1","iden_exp","hana","deta","1","A","7","","3","hanaA","hanaA","hanaA07-detaU03","36","4","another bottle garden frozen anywhere","hanaA"
"<h1>どちらの単語が聞こえましたか</h1>","770","1","iden_exp","hana","deta","1","A","11","","11","hanaA","hanaU","hanaA11-detaA11","38","4","another bottle garden frozen anywhere","hanaU"
"<h1>どちらの単語が聞こえましたか</h1>","510","0","iden_exp","hana","deta","1","A","9","","11","hanaA","hanaU","hanaA09-detaA11","40","4","another bottle garden frozen anywhere","hanaA"
"<h1>どちらの単語が聞こえましたか</h1>","897","1","iden_exp","hana","deta","1","A","9","","7","hanaA","hanaU","hanaA09-detaA07","42","4","another bottle garden frozen anywhere","hanaU"
"<h1>どちらの単語が聞こえましたか</h1>","722","0","iden_exp","hana","deta","1","U","1","","3","hanaU","hanaU","hanaU01-detaU03","44","4","another bottle garden frozen anywhere","hanaU"
"<h1>どちらの単語が聞こえましたか</h1>","488","1","iden_exp","hana","deta","1","U","3","","7","hanaU","hanaU","hanaU03-detaU07","46","5","another bottle garden frozen anywhere","hanaU"
"<h1>どちらの単語が聞こえましたか</h1>","497","1","iden_exp","hana","deta","1","U","1","","5","hanaU","hanaU","hanaU01-detaA05","48","5","another bottle garden frozen anywhere","hanaU"
"<h1>どちらの単語が聞こえましたか</h1>","622","1","iden_exp","hana","deta","1","A","6","","6","hanaA","hanaA","hanaA06-detaU06","50","5","another bottle garden frozen anywhere","hanaA"
"<h1>どちらの単語が聞こえましたか</h1>","503","1","iden_exp","hana","deta","1","A","3","","11","hanaA","hanaA","hanaA03-detaU11","52","5","another bottle garden frozen anywhere","hanaA"
"<h1>どちらの単語が聞こえましたか</h1>","458","0","iden_exp","hana","deta","1","A","1","","5","hanaA","hanaA","hanaA01-detaU05","54","6","another bottle garden frozen anywhere","hanaA"
"<h1>どちらの単語が聞こえましたか</h1>","657","0","iden_exp","hana","deta","1","U","11","","6","hanaU","hanaU","hanaU11-detaU06","56","6","another bottle garden frozen anywhere","hanaU"
"<h1>どちらの単語が聞こえましたか</h1>","653","0","iden_exp","hana","deta","1","U","11","","1","hanaU","hanaU","hanaU11-detaA01","58","6","another bottle garden frozen anywhere","hanaU"
"<h1>どちらの単語が聞こえましたか</h1>","602","0","iden_exp","hana","deta","1","U","5","","7","hanaU","hanaU","hanaU05-detaA07","60","7","another bottle garden frozen anywhere","hanaU"
"<h1>どちらの単語が聞こえましたか</h1>","524","1","iden_exp","hana","deta","1","U","9","","5","hanaU","hanaU","hanaU09-detaA05","62","7","another bottle garden frozen anywhere","hanaU"
"<h1>どちらの単語が聞こえましたか</h1>","631","0","iden_exp","hana","deta","1","A","3","","3","hanaA","hanaA","hanaA03-detaU03","64","7","another bottle garden frozen anywhere","hanaA"
"<h1>どちらの単語が聞こえましたか</h1>","642","1","iden_exp","hana","deta","1","U","5","","9","hanaU","hanaU","hanaU05-detaU09","66","7","another bottle garden frozen anywhere","hanaU"
"<h1>どちらの単語が聞こえましたか</h1>","751","1","iden_exp","hana","deta","1","U","6","","5","hanaU","hanaU","hanaU06-detaA05","68","8","another bottle garden frozen anywhere","hanaU"
"<h1>どちらの単語が聞こえましたか</h1>","889","0","iden_exp","hana","deta","1","U","1","","1","hanaU","hanaU","hanaU01-detaU01","70","8","another bottle garden frozen anywhere","hanaU"
"<h1>どちらの単語が聞こえましたか</h1>","444","0","iden_exp","hana","deta","1","U","7","","5","hanaU","hanaU","hanaU07-detaA05","72","8","another bottle garden frozen anywhere","hanaU"
"<h1>どちらの単語が聞こえましたか</h1>","450","1","iden_exp","hana","deta","1","A","5","","3","hanaA","hanaA","hanaA05-detaU03","74","10","another bottle garden frozen anywhere","hanaA"
"<h1>どちらの単語が聞こえましたか</h1>","491","0","iden_exp","hana","deta","1","U","9","","5","hanaU","hanaU","hanaU09-detaU05","76","10","another bottle garden frozen anywhere","hanaU"
"<h1>どちらの単語が聞こえましたか</h1>","733","1","iden_exp","hana","deta","1","A","1","","7","hanaA","hanaU","hanaA01-detaA07","78","10","another bottle garden frozen anywhere","hanaU"
"<h1>どちらの単語が聞こえましたか</h1>","586","1","iden_exp","hana","deta","1","U","5","","11","hanaU","hanaU","hanaU05-detaU11","80","10","another bottle garden frozen anywhere","hanaU"
"<h1>どちらの単語が聞こえましたか</h1>","580","1","iden_exp","hana","deta","1","U","5","","1","hanaU","hanaU","hanaU05-detaA01","82","11","another bottle garden frozen anywhere","hanaU"
"<h1>どちらの単語が聞こえましたか</h1>","911","0","iden_exp","hana","deta","1","A","9","","9","hanaA","hanaU","hanaA09-detaA09","84","11","another bottle garden frozen anywhere","hanaA"
"<h1>どちらの単語が聞こえましたか</h1>","896","0","iden_exp","hana","deta","1","U","9","","7","hanaU","hanaU","hanaU09-detaA07","86","11","another bottle garden frozen anywhere","hanaU"
"<h1>どちらの単語が聞こえましたか</h1>","651","1","iden_exp","hana","deta","1","A","7","","1","hanaA","hanaA","hanaA07-detaU01","88","11","another bottle garden frozen anywhere","hanaA"
"<h1>どちらの単語が聞こえましたか</h1>","632","0","iden_exp","hana","deta","1","A","3","","1","hanaA","hanaU","hanaA03-detaA01","90","11","another bottle garden frozen anywhere","hanaA"
"<h1>どちらの単語が聞こえましたか</h1>","1139","0","iden_exp","hana","deta","1","A","3","","1","hanaA","hanaA","hanaA03-detaU01","92","12","another bottle garden frozen anywhere","hanaA"
"<h1>どちらの単語が聞こえましたか</h1>","537","0","iden_exp","hana","deta","1","U","7","","3","hanaU","hanaU","hanaU07-detaU03","94","12","another bottle garden frozen anywhere","hanaU"
"<h1>どちらの単語が聞こえましたか</h1>","501","1","iden_exp","hana","deta","1","A","7","","5","hanaA","hanaU","hanaA07-detaA05","96","12","another bottle garden frozen anywhere","hanaU"
"<h1>どちらの単語が聞こえましたか</h1>","837","1","iden_exp","hana","deta","1","A","7","","9","hanaA","hanaU","hanaA07-detaA09","98","12","another bottle garden frozen anywhere","hanaU"
"<h1>どちらの単語が聞こえましたか</h1>","567","1","iden_exp","hana","deta","1","U","9","","9","hanaU","hanaU","hanaU09-detaA09","100","13","another bottle garden frozen anywhere","hanaU"
"<h1>どちらの単語が聞こえましたか</h1>","582","0","iden_exp","hana","deta","1","A","5","","5","hanaA","hanaA","hanaA05-detaU05","102","13","another bottle garden frozen anywhere","hanaA"
"<h1>どちらの単語が聞こえましたか</h1>","675","1","iden_exp","hana","deta","1","U","11","","7","hanaU","hanaU","hanaU11-detaU07","104","13","another bottle garden frozen anywhere","hanaU"
"<h1>どちらの単語が聞こえましたか</h1>","465","0","iden_exp","hana","deta","1","A","7","","11","hanaA","hanaU","hanaA07-detaA11","106","13","another bottle garden frozen anywhere","hanaA"
"<h1>どちらの単語が聞こえましたか</h1>","511","0","iden_exp","hana","deta","1","U","6","","9","hanaU","hanaU","hanaU06-detaA09","108","13","another bottle garden frozen anywhere","hanaU"
"<h1>どちらの単語が聞こえましたか</h1>","611","0","iden_exp","hana","deta","1","A","11","","1","hanaA","hanaA","hanaA11-detaU01","110","13","another bottle garden frozen anywhere","hanaA"
"<h1>どちらの単語が聞こえましたか</h1>","898","1","iden_exp","hana","deta","1","U","3","","9","hanaU","hanaU","hanaU03-detaU09","112","13","another bottle garden frozen anywhere","hanaU"
"<h1>どちらの単語が聞こえましたか</h1>","573","0","iden_exp","hana","deta","1","U","9","","1","hanaU","hanaU","hanaU09-detaU01","114","13","another bottle garden frozen anywhere","hanaU"
"<h1>どちらの単語が聞こえましたか</h1>","553","0","iden_exp","hana","deta","1","A","7","","7","hanaA","hanaA","hanaA07-detaU07","116","13","another bottle garden frozen anywhere","hanaA"
"<h1>どちらの単語が聞こえましたか</h1>","547","0","iden_exp","hana","deta","1","U","5","","7","hanaU","hanaU","hanaU05-detaU07","118","13","another bottle garden frozen anywhere","hanaU"
"<h1>どちらの単語が聞こえましたか</h1>","773","0","iden_exp","hana","deta","1","U","9","","9","hanaU","hanaU","hanaU09-detaU09","120","13","another bottle garden frozen anywhere","hanaU"
"<h1>どちらの単語が聞こえましたか</h1>","1158","1","iden_exp","hana","deta","1","A","9","","11","hanaA","hanaA","hanaA09-detaU11","122","13","another bottle garden frozen anywhere","hanaA"
"<h1>どちらの単語が聞こえましたか</h1>","530","1","iden_exp","hana","deta","1","A","3","","3","hanaA","hanaU","hanaA03-detaA03","124","13","another bottle garden frozen anywhere","hanaU"
"<h1>どちらの単語が聞こえましたか</h1>","730","0","iden_exp","hana","deta","1","A","5","","9","hanaA","hanaA","hanaA05-detaU09","126","14","another bottle garden frozen anywhere","hanaA"
"<h1>どちらの単語が聞こえましたか</h1>","594","0","iden_exp","hana","deta","1","U","11","","11","hanaU","hanaU","hanaU11-detaU11","128","14","another bottle garden frozen anywhere","hanaU"
"<h1>どちらの単語が聞こえましたか</h1>","463","0","iden_exp","hana","deta","1","A","6","","5","hanaA","hanaU","hanaA06-detaA05","130","14","another bottle garden frozen anywhere","hanaA"
"<h1>どちらの単語が聞こえましたか</h1>","546","0","iden_exp","hana","deta","1","U","7","","3","hanaU","hanaU","hanaU07-detaA03","132","14","another bottle garden frozen anywhere","hanaU"
"<h1>どちらの単語が聞こえましたか</h1>","593","1","iden_exp","hana","deta","1","U","9","","11","hanaU","hanaU","hanaU09-detaA11","134","14","another bottle garden frozen anywhere","hanaU"
"<h1>どちらの単語が聞こえましたか</h1>","761","1","iden_exp","hana","deta","1","A","7","","6","hanaA","hanaU","hanaA07-detaA06","136","14","another bottle garden frozen anywhere","hanaU"
"<h1>どちらの単語が聞こえましたか</h1>","580","0","iden_exp","hana","deta","1","A","5","","1","hanaA","hanaA","hanaA05-detaU01","138","14","another bottle garden frozen anywhere","hanaA"
"<h1>どちらの単語が聞こえましたか</h1>","581","0","iden_exp","hana","deta","1","A","5","","7","hanaA","hanaA","hanaA05-detaU07","140","14","another bottle garden frozen anywhere","hanaA"
"<h1>どちらの単語が聞こえましたか</h1>","586","1","iden_exp","hana","deta","1","U","3","","3","hanaU","hanaU","hanaU03-detaA03","142","14","another bottle garden frozen anywhere","hanaU"
"<h1>どちらの単語が聞こえましたか</h1>","519","0","iden_exp","hana","deta","1","U","1","","7","hanaU","hanaU","hanaU01-detaA07","144","14","another bottle garden frozen anywhere","hanaU"
"<h1>どちらの単語が聞こえましたか</h1>","440","1","iden_exp","hana","deta","1","U","3","","5","hanaU","hanaU","hanaU03-detaA05","146","14","another bottle garden frozen anywhere","hanaU"
"<h1>どちらの単語が聞こえましたか</h1>","787","0","iden_exp","hana","deta","1","U","5","","9","hanaU","hanaU","hanaU05-detaA09","148","14","another bottle garden frozen anywhere","hanaU"
"<h1>どちらの単語が聞こえましたか</h1>","686","1","iden_exp","hana","deta","1","A","11","","9","hanaA","hanaU","hanaA11-detaA09","150","15","another bottle garden frozen anywhere","hanaU"
"<h1>どちらの単語が聞こえましたか</h1>","625","1","iden_exp","hana","deta","1","U","1","","1","hanaU","hanaU","hanaU01-detaA01","152","15","another bottle garden frozen anywhere","hanaU"
"<h1>どちらの単語が聞こえましたか</h1>","625","0","iden_exp","hana","deta","1","U","5","","5","hanaU","hanaU","hanaU05-detaU05","154","15","another bottle garden frozen anywhere","hanaU"
"<h1>どちらの単語が聞こえましたか</h1>","591","0","iden_exp","hana","deta","1","A","7","","6","hanaA","hanaA","hanaA07-detaU06","156","16","another bottle garden frozen anywhere","hanaA"
"<h1>どちらの単語が聞こえましたか</h1>","562","0","iden_exp","hana","deta","1","A","3","","7","hanaA","hanaU","hanaA03-detaA07","158","16","another bottle garden frozen anywhere","hanaA"
"<h1>どちらの単語が聞こえましたか</h1>","676","1","iden_exp","hana","deta","1","U","5","","3","hanaU","hanaU","hanaU05-detaA03","160","16","another bottle garden frozen anywhere","hanaU"
"<h1>どちらの単語が聞こえましたか</h1>","650","1","iden_exp","hana","deta","1","U","3","","9","hanaU","hanaU","hanaU03-detaA09","162","16","another bottle garden frozen anywhere","hanaU"
"<h1>どちらの単語が聞こえましたか</h1>","601","0","iden_exp","hana","deta","1","U","7","","9","hanaU","hanaU","hanaU07-detaA09","164","16","another bottle garden frozen anywhere","hanaU"
"<h1>どちらの単語が聞こえましたか</h1>","742","0","iden_exp","hana","deta","1","A","1","","7","hanaA","hanaA","hanaA01-detaU07","166","16","another bottle garden frozen anywhere","hanaA"
"<h1>どちらの単語が聞こえましたか</h1>","506","1","iden_exp","hana","deta","1","A","1","","11","hanaA","hanaU","hanaA01-detaA11","168","16","another bottle garden frozen anywhere","hanaU"
"<h1>どちらの単語が聞こえましたか</h1>","570","0","iden_exp","hana","deta","1","A","5","","1","hanaA","hanaU","hanaA05-detaA01","170","16","another bottle garden frozen anywhere","hanaA"
"<h1>どちらの単語が聞こえましたか</h1>","548","1","iden_exp","hana","deta","1","A","11","","6","hanaA","hanaU","hanaA11-detaA06","172","16","another bottle garden frozen anywhere","hanaU"
"<h1>どちらの単語が聞こえましたか</h1>","610","1","iden_exp","hana","deta","1","A","11","","7","hanaA","hanaU","hanaA11-detaA07","174","16","another bottle garden frozen anywhere","hanaU"
"<h1>どちらの単語が聞こえましたか</h1>","582","1","iden_exp","hana","deta","1","A","1","","3","hanaA","hanaA","hanaA01-detaU03","176","16","another bottle garden frozen anywhere","hanaA"
"<h1>どちらの単語が聞こえましたか</h1>","812","1","iden_exp","hana","deta","1","A","5","","11","hanaA","hanaU","hanaA05-detaA11","178","17","another bottle garden frozen anywhere","hanaU"
"<h1>どちらの単語が聞こえましたか</h1>","1090","1","iden_exp","hana","deta","1","A","7","","1","hanaA","hanaU","hanaA07-detaA01","180","17","another bottle garden frozen anywhere","hanaU"
"<h1>どちらの単語が聞こえましたか</h1>","788","0","iden_exp","hana","deta","1","U","11","","1","hanaU","hanaU","hanaU11-detaU01","182","17","another bottle garden frozen anywhere","hanaU"
"<h1>どちらの単語が聞こえましたか</h1>","674","1","iden_exp","hana","deta","1","U","6","","7","hanaU","hanaU","hanaU06-detaU07","184","17","another bottle garden frozen anywhere","hanaU"
"<h1>どちらの単語が聞こえましたか</h1>","512","0","iden_exp","hana","deta","1","A","3","","9","hanaA","hanaU","hanaA03-detaA09","186","17","another bottle garden frozen anywhere","hanaA"
"<h1>どちらの単語が聞こえましたか</h1>","748","0","iden_exp","hana","deta","1","U","6","","11","hanaU","hanaU","hanaU06-detaU11","188","18","another bottle garden frozen anywhere","hanaU"
"<h1>どちらの単語が聞こえましたか</h1>","626","0","iden_exp","hana","deta","1","U","9","","11","hanaU","hanaU","hanaU09-detaU11","190","18","another bottle garden frozen anywhere","hanaU"
"<h1>どちらの単語が聞こえましたか</h1>","510","1","iden_exp","hana","deta","1","U","5","","11","hanaU","hanaU","hanaU05-detaA11","192","18","another bottle garden frozen anywhere","hanaU"
"<h1>どちらの単語が聞こえましたか</h1>","417","0","iden_exp","hana","deta","1","A","1","","3","hanaA","hanaU","hanaA01-detaA03","194","18","another bottle garden frozen anywhere","hanaA"
"<h1>どちらの単語が聞こえましたか</h1>","523","0","iden_exp","hana","deta","1","U","5","","6","hanaU","hanaU","hanaU05-detaA06","196","18","another bottle garden frozen anywhere","hanaU"
"<h1>どちらの単語が聞こえましたか</h1>","600","0","iden_exp","hana","deta","1","U","11","","6","hanaU","hanaU","hanaU11-detaA06","198","18","another bottle garden frozen anywhere","hanaU"
"<h1>どちらの単語が聞こえましたか</h1>","596","1","iden_exp","hana","deta","1","U","11","","9","hanaU","hanaU","hanaU11-detaU09","200","18","another bottle garden frozen anywhere","hanaU"
"<h1>どちらの単語が聞こえましたか</h1>","890","0","iden_exp","hana","deta","1","U","3","","6","hanaU","hanaU","hanaU03-detaA06","202","18","another bottle garden frozen anywhere","hanaU"
"<h1>どちらの単語が聞こえましたか</h1>","603","1","iden_exp","hana","deta","1","U","1","","9","hanaU","hanaU","hanaU01-detaU09","204","18","another bottle garden frozen anywhere","hanaU"
"<h1>どちらの単語が聞こえましたか</h1>","620","0","iden_exp","hana","deta","1","A","1","","6","hanaA","hanaA","hanaA01-detaU06","206","18","another bottle garden frozen anywhere","hanaA"
"<h1>どちらの単語が聞こえましたか</h1>","698","0","iden_exp","hana","deta","1","A","11","","9","hanaA","hanaA","hanaA11-detaU09","208","18","another bottle garden frozen anywhere","hanaA"
"<h1>どちらの単語が聞こえましたか</h1>","757","1","iden_exp","hana","deta","1","U","6","","3","hanaU","hanaU","hanaU06-detaA03","210","18","another bottle garden frozen anywhere","hanaU"
"<h1>どちらの単語が聞こえましたか</h1>","531","1","iden_exp","hana","deta","1","U","9","","1","hanaU","hanaU","hanaU09-detaA01","212","18","another bottle garden frozen anywhere","hanaU"
"<h1>どちらの単語が聞こえましたか</h1>","975","0","iden_exp","hana","deta","1","U","9","","6","hanaU","hanaU","hanaU09-detaA06","214","18","another bottle garden frozen anywhere","hanaU"
"<h1>どちらの単語が聞こえましたか</h1>","781","0","iden_exp","hana","deta","1","U","6","","1","hanaU","hanaU","hanaU06-detaA01","216","19","another bottle garden frozen anywhere","hanaU"
"<h1>どちらの単語が聞こえましたか</h1>","640","1","iden_exp","hana","deta","1","U","1","","3","hanaU","hanaU","hanaU01-detaA03","218","19","another bottle garden frozen anywhere","hanaU"
"<h1>どちらの単語が聞こえましたか</h1>","524","1","iden_exp","hana","deta","1","U","1","","9","hanaU","hanaU","hanaU01-detaA09","220","19","another bottle garden frozen anywhere","hanaU"
"<h1>どちらの単語が聞こえましたか</h1>","794","1","iden_exp","hana","deta","1","U","9","","7","hanaU","hanaU","hanaU09-detaU07","222","19","another bottle garden frozen anywhere","hanaU"
"<h1>どちらの単語が聞こえましたか</h1>","596","0","iden_exp","hana","deta","1","A","3","","9","hanaA","hanaA","hanaA03-detaU09","224","19","another bottle garden frozen anywhere","hanaA"
"<h1>どちらの単語が聞こえましたか</h1>","909","0","iden_exp","hana","deta","1","A","1","","1","hanaA","hanaU","hanaA01-detaA01","226","19","another bottle garden frozen anywhere","hanaA"
"<h1>どちらの単語が聞こえましたか</h1>","551","1","iden_exp","hana","deta","1","A","7","","9","hanaA","hanaA","hanaA07-detaU09","228","19","another bottle garden frozen anywhere","hanaA"
"<h1>どちらの単語が聞こえましたか</h1>","596","1","iden_exp","hana","deta","1","U","1","","11","hanaU","hanaU","hanaU01-detaA11","230","19","another bottle garden frozen anywhere","hanaU"
"<h1>どちらの単語が聞こえましたか</h1>","539","1","iden_exp","hana","deta","1","U","1","","6","hanaU","hanaU","hanaU01-detaU06","232","19","another bottle garden frozen anywhere","hanaU"
"<h1>どちらの単語が聞こえましたか</h1>","604","0","iden_exp","hana","deta","1","A","1","","11","hanaA","hanaA","hanaA01-detaU11","234","19","another bottle garden frozen anywhere","hanaA"
"<h1>どちらの単語が聞こえましたか</h1>","994","1","iden_exp","hana","deta","1","A","11","","5","hanaA","hanaA","hanaA11-detaU05","236","19","another bottle garden frozen anywhere","hanaA"
"<h1>どちらの単語が聞こえましたか</h1>","896","1","iden_exp","hana","deta","1","A","1","","6","hanaA","hanaU","hanaA01-detaA06","238","19","another bottle garden frozen anywhere","hanaU"
"<h1>どちらの単語が聞こえましたか</h1>","519","0","iden_exp","hana","deta","1","U","3","","3","hanaU","hanaU","hanaU03-detaU03","240","19","another bottle garden frozen anywhere","hanaU"
"<h1>どちらの単語が聞こえましたか</h1>","605","1","iden_exp","hana","deta","1","U","11","","3","hanaU","hanaU","hanaU11-detaA03","242","19","another bottle garden frozen anywhere","hanaU"
"<h1>どちらの単語が聞こえましたか</h1>","648","0","iden_exp","hana","deta","1","A","11","","5","hanaA","hanaU","hanaA11-detaA05","244","20","another bottle garden frozen anywhere","hanaA"
"<h1>どちらの単語が聞こえましたか</h1>","706","0","iden_exp","hana","deta","1","A","9","","5","hanaA","hanaU","hanaA09-detaA05","246","20","another bottle garden frozen anywhere","hanaA"
"<h1>どちらの単語が聞こえましたか</h1>","503","0","iden_exp","hana","deta","1","A","7","","5","hanaA","hanaA","hanaA07-detaU05","248","20","another bottle garden frozen anywhere","hanaA"
"<h1>どちらの単語が聞こえましたか</h1>","491","1","iden_exp","hana","deta","1","U","7","","1","hanaU","hanaU","hanaU07-detaU01","250","20","another bottle garden frozen anywhere","hanaU"
"<h1>どちらの単語が聞こえましたか</h1>","584","0","iden_exp","hana","deta","1","A","3","","11","hanaA","hanaU","hanaA03-detaA11","252","20","another bottle garden frozen anywhere","hanaA"
"<h1>どちらの単語が聞こえましたか</h1>","478","1","iden_exp","hana","deta","1","U","1","","7","hanaU","hanaU","hanaU01-detaU07","254","20","another bottle garden frozen anywhere","hanaU"
"<h1>どちらの単語が聞こえましたか</h1>","575","0","iden_exp","hana","deta","1","A","7","","3","hanaA","hanaU","hanaA07-detaA03","256","20","another bottle garden frozen anywhere","hanaA"
"<h1>どちらの単語が聞こえましたか</h1>","676","0","iden_exp","hana","deta","1","A","3","","6","hanaA","hanaA","hanaA03-detaU06","258","20","another bottle garden frozen anywhere","hanaA"
"<h1>どちらの単語が聞こえましたか</h1>","726","0","iden_exp","hana","deta","1","A","3","","7","hanaA","hanaA","hanaA03-detaU07","260","21","another bottle garden frozen anywhere","hanaA"
"<h1>どちらの単語が聞こえましたか</h1>","572","1","iden_exp","hana","deta","1","A","9","","1","hanaA","hanaU","hanaA09-detaA01","262","21","another bottle garden frozen anywhere","hanaU"
"<h1>どちらの単語が聞こえましたか</h1>","644","1","iden_exp","hana","deta","1","A","9","","7","hanaA","hanaA","hanaA09-detaU07","264","21","another bottle garden frozen anywhere","hanaA"
"<h1>どちらの単語が聞こえましたか</h1>","586","1","iden_exp","hana","deta","1","U","9","","6","hanaU","hanaU","hanaU09-detaU06","266","22","another bottle garden frozen anywhere","hanaU"
"<h1>どちらの単語が聞こえましたか</h1>","781","0","iden_exp","hana","deta","1","U","7","","11","hanaU","hanaU","hanaU07-detaU11","268","22","another bottle garden frozen anywhere","hanaU"
"<h1>どちらの単語が聞こえましたか</h1>","705","1","iden_exp","hana","deta","1","A","6","","11","hanaA","hanaU","hanaA06-detaA11","270","22","another bottle garden frozen anywhere","hanaU"
"<h1>どちらの単語が聞こえましたか</h1>","548","0","iden_exp","hana","deta","1","U","7","","1","hanaU","hanaU","hanaU07-detaA01","272","22","another bottle garden frozen anywhere","hanaU"
"<h1>どちらの単語が聞こえましたか</h1>","643","0","iden_exp","hana","deta","1","A","11","","1","hanaA","hanaU","hanaA11-detaA01","274","22","another bottle garden frozen anywhere","hanaA"
"<h1>どちらの単語が聞こえましたか</h1>","407","0","iden_exp","hana","deta","1","A","11","","11","hanaA","hanaA","hanaA11-detaU11","276","22","another bottle garden frozen anywhere","hanaA"
"<h1>どちらの単語が聞こえましたか</h1>","561","1","iden_exp","hana","deta","1","A","3","","5","hanaA","hanaU","hanaA03-detaA05","278","22","another bottle garden frozen anywhere","hanaU"
"<h1>どちらの単語が聞こえましたか</h1>","695","0","iden_exp","hana","deta","1","U","11","","3","hanaU","hanaU","hanaU11-detaU03","280","22","another bottle garden frozen anywhere","hanaU"
"<h1>どちらの単語が聞こえましたか</h1>","711","1","iden_exp","hana","deta","1","A","6","","11","hanaA","hanaA","hanaA06-detaU11","282","22","another bottle garden frozen anywhere","hanaA"
"<h1>どちらの単語が聞こえましたか</h1>","719","0","iden_exp","hana","deta","1","A","7","","7","hanaA","hanaU","hanaA07-detaA07","284","22","another bottle garden frozen anywhere","hanaA"
"<h1>どちらの単語が聞こえましたか</h1>","543","0","iden_exp","hana","deta","1","A","6","","9","hanaA","hanaA","hanaA06-detaU09","286","22","another bottle garden frozen anywhere","hanaA"
"<h1>どちらの単語が聞こえましたか</h1>","547","1","iden_exp","hana","deta","1","A","5","","3","hanaA","hanaU","hanaA05-detaA03","288","22","another bottle garden frozen anywhere","hanaU"
"<h1>どちらの単語が聞こえましたか</h1>","544","0","iden_exp","hana","deta","1","A","1","","1","hanaA","hanaA","hanaA01-detaU01","290","22","another bottle garden frozen anywhere","hanaA"
"<h1>どちらの単語が聞こえましたか</h1>","739","0","iden_exp","hana","deta","1","U","11","","5","hanaU","hanaU","hanaU11-detaU05","292","22","another bottle garden frozen anywhere","hanaU"
"<h1>どちらの単語が聞こえましたか</h1>","516","0","iden_exp","hana","deta","1","U","3","","11","hanaU","hanaU","hanaU03-detaA11","294","22","another bottle garden frozen anywhere","hanaU"
"<h1>どちらの単語が聞こえましたか</h1>","503","0","iden_exp","hana","deta","1","A","7","","11","hanaA","hanaA","hanaA07-detaU11","296","22","another bottle garden frozen anywhere","hanaA"
"<h1>どちらの単語が聞こえましたか</h1>","590","1","iden_exp","hana","deta","1","A","6","","3","hanaA","hanaU","hanaA06-detaA03","298","23","another bottle garden frozen anywhere","hanaU"
"<h1>どちらの単語が聞こえましたか</h1>","650","1","iden_exp","hana","deta","1","U","7","","11","hanaU","hanaU","hanaU07-detaA11","300","23","another bottle garden frozen anywhere","hanaU"
"<h1>どちらの単語が聞こえましたか</h1>","674","0","iden_exp","hana","deta","1","A","6","","3","hanaA","hanaA","hanaA06-detaU03","302","23","another bottle garden frozen anywhere","hanaA"
"<h1>どちらの単語が聞こえましたか</h1>","576","0","iden_exp","hana","deta","1","U","3","","11","hanaU","hanaU","hanaU03-detaU11","304","23","another bottle garden frozen anywhere","hanaU"
"<h1>どちらの単語が聞こえましたか</h1>","552","0","iden_exp","hana","deta","1","A","6","","6","hanaA","hanaU","hanaA06-detaA06","306","23","another bottle garden frozen anywhere","hanaA"
"<h1>どちらの単語が聞こえましたか</h1>","755","0","iden_exp","hana","deta","1","A","11","","3","hanaA","hanaA","hanaA11-detaU03","308","23","another bottle garden frozen anywhere","hanaA"
"<h1>どちらの単語が聞こえましたか</h1>","536","0","iden_exp","hana","deta","1","A","6","","7","hanaA","hanaU","hanaA06-detaA07","310","23","another bottle garden frozen anywhere","hanaA"
"<h1>どちらの単語が聞こえましたか</h1>","603","0","iden_exp","hana","deta","1","U","7","","9","hanaU","hanaU","hanaU07-detaU09","312","23","another bottle garden frozen anywhere","hanaU"
"<h1>どちらの単語が聞こえましたか</h1>","736","1","iden_exp","hana","deta","1","A","9","","3","hanaA","hanaA","hanaA09-detaU03","314","23","another bottle garden frozen anywhere","hanaA"
"<h1>どちらの単語が聞こえましたか</h1>","596","1","iden_exp","hana","deta","1","U","6","","3","hanaU","hanaU","hanaU06-detaU03","316","23","another bottle garden frozen anywhere","hanaU"
"<h1>どちらの単語が聞こえましたか</h1>","485","1","iden_exp","hana","deta","1","A","9","","6","hanaA","hanaA","hanaA09-detaU06","318","23","another bottle garden frozen anywhere","hanaA"
"<h1>どちらの単語が聞こえましたか</h1>","775","0","iden_exp","hana","deta","1","U","9","","3","hanaU","hanaU","hanaU09-detaU03","320","23","another bottle garden frozen anywhere","hanaU"
"<h1>どちらの単語が聞こえましたか</h1>","998","1","iden_exp","hana","deta","1","A","5","","5","hanaA","hanaU","hanaA05-detaA05","322","23","another bottle garden frozen anywhere","hanaU"
"<h1>どちらの単語が聞こえましたか</h1>","530","0","iden_exp","hana","deta","1","U","3","","5","hanaU","hanaU","hanaU03-detaU05","324","23","another bottle garden frozen anywhere","hanaU"
"<h1>どちらの単語が聞こえましたか</h1>","526","0","iden_exp","hana","deta","1","A","9","","6","hanaA","hanaU","hanaA09-detaA06","326","23","another bottle garden frozen anywhere","hanaA"
"<h1>どちらの単語が聞こえましたか</h1>","512","1","iden_exp","hana","deta","1","U","5","","6","hanaU","hanaU","hanaU05-detaU06","328","23","another bottle garden frozen anywhere","hanaU"
"<h1>どちらの単語が聞こえましたか</h1>","666","1","iden_exp","hana","deta","1","A","5","","6","hanaA","hanaA","hanaA05-detaU06","330","24","another bottle garden frozen anywhere","hanaA"
"<h1>どちらの単語が聞こえましたか</h1>","539","0","iden_exp","hana","deta","1","A","1","","9","hanaA","hanaA","hanaA01-detaU09","332","24","another bottle garden frozen anywhere","hanaA"
"<h1>どちらの単語が聞こえましたか</h1>","513","0","iden_exp","hana","deta","1","A","1","","9","hanaA","hanaU","hanaA01-detaA09","334","24","another bottle garden frozen anywhere","hanaA"
"<h1>どちらの単語が聞こえましたか</h1>","453","0","iden_exp","hana","deta","1","U","1","","6","hanaU","hanaU","hanaU01-detaA06","336","24","another bottle garden frozen anywhere","hanaU"
"<h1>どちらの単語が聞こえましたか</h1>","753","0","iden_exp","hana","deta","1","A","9","","5","hanaA","hanaA","hanaA09-detaU05","338","24","another bottle garden frozen anywhere","hanaA"
"<h1>どちらの単語が聞こえましたか</h1>","580","1","iden_exp","hana","deta","1","A","9","","1","hanaA","hanaA","hanaA09-detaU01","340","24","another bottle garden frozen anywhere","hanaA"
"<h1>どちらの単語が聞こえましたか</h1>","488","1","iden_exp","hana","deta","1","U","7","","5","hanaU","hanaU","hanaU07-detaU05","342","24","another bottle garden frozen anywhere","hanaU"
"<h1>どちらの単語が聞こえましたか</h1>","745","1","iden_exp","hana","deta","1","A","3","","5","hanaA","hanaA","hanaA03-detaU05","344","24","another bottle garden frozen anywhere","hanaA"
"<h1>どちらの単語が聞こえましたか</h1>","528","0","iden_exp","hana","deta","1","A","11","","3","hanaA","hanaU","hanaA11-detaA03","346","24","another bottle garden frozen anywhere","hanaA"
"<h1>どちらの単語が聞こえましたか</h1>","596","1","iden_exp","hana","deta","1","A","11","","6","hanaA","hanaA","hanaA11-detaU06","348","24","another bottle garden frozen anywhere","hanaA"
"<h1>どちらの単語が聞こえましたか</h1>","586","1","iden_exp","hana","deta","1","U","6","","5","hanaU","hanaU","hanaU06-detaU05","350","24","another bottle garden frozen anywhere","hanaU"
"<h1>どちらの単語が聞こえましたか</h1>","483","0","iden_exp","hana","deta","1","U","7","","7","hanaU","hanaU","hanaU07-detaA07","352","24","another bottle garden frozen anywhere","hanaU"
"<h1>どちらの単語が聞こえましたか</h1>","695","1","iden_exp","hana","deta","1","A","5","","9","hanaA","hanaU","hanaA05-detaA09","354","24","another bottle garden frozen anywhere","hanaU"
"<h1>どちらの単語が聞こえましたか</h1>","671","0","iden_exp","hana","deta","1","U","5","","3","hanaU","hanaU","hanaU05-detaU03","356","24","another bottle garden frozen anywhere","hanaU"
"<h1>どちらの単語が聞こえましたか</h1>","751","1","iden_exp","hana","deta","1","U","3","","6","hanaU","hanaU","hanaU03-detaU06","358","24","another bottle garden frozen anywhere","hanaU"
"<h1>どちらの単語が聞こえましたか</h1>","792","1","iden_exp","hana","deta","1","U","6","","1","hanaU","hanaU","hanaU06-detaU01","360","25","another bottle garden frozen anywhere","hanaU"
"<h1>どちらの単語が聞こえましたか</h1>","509","0","iden_exp","hana","deta","1","U","1","","5","hanaU","hanaU","hanaU01-detaU05","362","25","another bottle garden frozen anywhere","hanaU"
"<h1>どちらの単語が聞こえましたか</h1>","606","1","iden_exp","hana","deta","1","U","6","","11","hanaU","hanaU","hanaU06-detaA11","364","25","another bottle garden frozen anywhere","hanaU"
"<h1>どちらの単語が聞こえましたか</h1>","577","1","iden_exp","hana","deta","1","U","6","","7","hanaU","hanaU","hanaU06-detaA07","366","25","another bottle garden frozen anywhere","hanaU"
"<h1>どちらの単語が聞こえましたか</h1>","1164","1","iden_exp","hana","deta","1","A","11","","7","hanaA","hanaA","hanaA11-detaU07","368","25","another bottle garden frozen anywhere","hanaA"
"<h1>どちらの単語が聞こえましたか</h1>","472","1","iden_exp","hana","deta","1","A","6","","9","hanaA","hanaU","hanaA06-detaA09","370","25","another bottle garden frozen anywhere","hanaU"
"<h1>どちらの単語が聞こえましたか</h1>","801","1","iden_exp","hana","deta","1","A","6","","1","hanaA","hanaU","hanaA06-detaA01","372","25","another bottle garden frozen anywhere","hanaU"
"<h1>どちらの単語が聞こえましたか</h1>","693","0","iden_exp","hana","deta","1","U","6","","6","hanaU","hanaU","hanaU06-detaA06","374","25","another bottle garden frozen anywhere","hanaU"
"<h1>どちらの単語が聞こえましたか</h1>","594","1","iden_exp","hana","deta","1","U","11","","7","hanaU","hanaU","hanaU11-detaA07","376","25","another bottle garden frozen anywhere","hanaU"
"<h1>どちらの単語が聞こえましたか</h1>","574","1","iden_exp","hana","deta","1","U","3","","7","hanaU","hanaU","hanaU03-detaA07","378","25","another bottle garden frozen anywhere","hanaU"
"<h1>どちらの単語が聞こえましたか</h1>","584","0","iden_exp","hana","deta","1","U","3","","1","hanaU","hanaU","hanaU03-detaA01","380","25","another bottle garden frozen anywhere","hanaU"
"<h1>どちらの単語が聞こえましたか</h1>","814","1","iden_exp","hana","deta","1","U","9","","3","hanaU","hanaU","hanaU09-detaA03","382","25","another bottle garden frozen anywhere","hanaU"
"<h1>どちらの単語が聞こえましたか</h1>","786","1","iden_exp","hana","deta","1","U","6","","9","hanaU","hanaU","hanaU06-detaU09","384","25","another bottle garden frozen anywhere","hanaU"
"<h1>どちらの単語が聞こえましたか</h1>","559","1","iden_exp","hana","deta","1","U","5","","5","hanaU","hanaU","hanaU05-detaA05","386","25","another bottle garden frozen anywhere","hanaU"
"<h1>どちらの単語が聞こえましたか</h1>","564","1","iden_exp","hana","deta","1","U","5","","1","hanaU","hanaU","hanaU05-detaU01","388","26","another bottle garden frozen anywhere","hanaU"
"<h1>どちらの単語が聞こえましたか</h1>","645","1","iden_exp","hana","deta","1","U","6","","6","hanaU","hanaU","hanaU06-detaU06","390","26","another bottle garden frozen anywhere","hanaU"
"<h1>どちらの単語が聞こえましたか</h1>","1158","1","iden_exp","hana","deta","1","A","5","","11","hanaA","hanaA","hanaA05-detaU11","392","26","another bottle garden frozen anywhere","hanaA"
"<h1>どちらの単語が聞こえましたか</h1>","485","1","iden_exp","hana","deta","1","A","1","","5","hanaA","hanaU","hanaA01-detaA05","394","26","another bottle garden frozen anywhere","hanaU"
"<h1>どちらの単語が聞こえましたか</h1>","705","1","iden_exp","hana","deta","1","A","5","","6","hanaA","hanaU","hanaA05-detaA06","396","26","another bottle garden frozen anywhere","hanaU"
"<h1>どちらの単語が聞こえましたか</h1>","567","1","iden_exp","hana","deta","1","A","6","","5","hanaA","hanaA","hanaA06-detaU05","398","26","another bottle garden frozen anywhere","hanaA"
"<h1>どちらの単語が聞こえましたか</h1>","711","0","iden_exp","hana","deta","1","U","11","","9","hanaU","hanaU","hanaU11-detaA09","400","26","another bottle garden frozen anywhere","hanaU"
"<h1>どちらの単語が聞こえましたか</h1>","534","1","iden_exp","hana","deta","1","U","11","","5","hanaU","hanaU","hanaU11-detaA05","402","26","another bottle garden frozen anywhere","hanaU"
"<h1>どちらの単語が聞こえましたか</h1>","687","1","iden_exp","hana","deta","1","A","9","","9","hanaA","hanaA","hanaA09-detaU09","404","26","another bottle garden frozen anywhere","hanaA"
"<h1>どちらの単語が聞こえましたか</h1>","704","1","iden_exp","hana","deta","1","A","6","","1","hanaA","hanaA","hanaA06-detaU01","406","26","another bottle garden frozen anywhere","hanaA"
"<h1>どちらの単語が聞こえましたか</h1>","705","0","iden_exp","hana","deta","1","U","3","","1","hanaU","hanaU","hanaU03-detaU01","408","26","another bottle garden frozen anywhere","hanaU"
"<h1>どちらの単語が聞こえましたか</h1>","591","1","iden_exp","hana","deta","1","U","7","","7","hanaU","hanaU","hanaU07-detaU07","410","26","another bottle garden frozen anywhere","hanaU"
"<h1>どちらの単語が聞こえましたか</h1>","633","1","iden_exp","hana","deta","1","A","6","","7","hanaA","hanaA","hanaA06-detaU07","412","27","another bottle garden frozen anywhere","hanaA"
"<h1>どちらの単語が聞こえましたか</h1>","742","0","iden_exp","hana","deta","2","U","6","","1","hanaU","hanaU","hanaU06-detaU01","415","27","another bottle garden frozen anywhere","hanaU"
"<h1>どちらの単語が聞こえましたか</h1>","536","0","iden_exp","hana","deta","2","A","7","","3","hanaA","hanaU","hanaA07-detaA03","417","27","another bottle garden frozen anywhere","hanaU"
"<h1>どちらの単語が聞こえましたか</h1>","594","0","iden_exp","hana","deta","2","A","11","","9","hanaA","hanaA","hanaA11-detaU09","419","27","another bottle garden frozen anywhere","hanaA"
"<h1>どちらの単語が聞こえましたか</h1>","515","1","iden_exp","hana","deta","2","A","9","","5","hanaA","hanaA","hanaA09-detaU05","421","27","another bottle garden frozen anywhere","hanaA"
"<h1>どちらの単語が聞こえましたか</h1>","656","1","iden_exp","hana","deta","2","A","7","","6","hanaA","hanaU","hanaA07-detaA06","423","27","another bottle garden frozen anywhere","hanaA"
"<h1>どちらの単語が聞こえましたか</h1>","554","0","iden_exp","hana","deta","2","A","5","","5","hanaA","hanaU","hanaA05-detaA05","425","27","another bottle garden frozen anywhere","hanaU"
"<h1>どちらの単語が聞こえましたか</h1>","667","0","iden_exp","hana","deta","2","U","5","","11","hanaU","hanaU","hanaU05-detaA11","427","27","another bottle garden frozen anywhere","hanaU"
"<h1>どちらの単語が聞こえましたか</h1>","545","1","iden_exp","hana","deta","2","U","11","","11","hanaU","hanaU","hanaU11-detaA11","429","27","another bottle garden frozen anywhere","hanaU"
"<h1>どちらの単語が聞こえましたか</h1>","622","0","iden_exp","hana","deta","2","A","11","","6","hanaA","hanaU","hanaA11-detaA06","431","27","another bottle garden frozen anywhere","hanaU"
"<h1>どちらの単語が聞こえましたか</h1>","510","1","iden_exp","hana","deta","2","A","6","","1","hanaA","hanaA","hanaA06-detaU01","433","27","another bottle garden frozen anywhere","hanaA"
"<h1>どちらの単語が聞こえましたか</h1>","408","0","iden_exp","hana","deta","2","A","5","","5","hanaA","hanaA","hanaA05-detaU05","435","27","another bottle garden frozen anywhere","hanaA"
"<h1>どちらの単語が聞こえましたか</h1>","579","0","iden_exp","hana","deta","2","A","7","","3","hanaA","hanaA","hanaA07-detaU03","437","28","another bottle garden frozen anywhere","hanaA"
"<h1>どちらの単語が聞こえましたか</h1>","599","1","iden_exp","hana","deta","2","U","1","","7","hanaU","hanaU","hanaU01-detaA07","439","28","another bottle garden frozen anywhere","hanaU"
"<h1>どちらの単語が聞こえましたか</h1>","622","0","iden_exp","hana","deta","2","A","3","","5","hanaA","hanaA","hanaA03-detaU05","441","28","another bottle garden frozen anywhere","hanaA"
"<h1>どちらの単語が聞こえましたか</h1>","562","0","iden_exp","hana","deta","2","U","6","","6","hanaU","hanaU","hanaU06-detaA06","443","29","another bottle garden frozen anywhere","hanaU"
"<h1>どちらの単語が聞こえましたか</h1>","596","1","iden_exp","hana","deta","2","A","11","","9","hanaA","hanaU","hanaA11-detaA09","445","29","another bottle garden frozen anywhere","hanaA"
"<h1>どちらの単語が聞こえましたか</h1>","518","1","iden_exp","hana","deta","2","U","3","","1","hanaU","hanaU","hanaU03-detaU01","447","29","another bottle garden frozen anywhere","hanaU"
"<h1>どちらの単語が聞こえましたか</h1>","484","0","iden_exp","hana","deta","2","A","5","","7","hanaA","hanaA","hanaA05-detaU07","449","29","another bottle garden frozen anywhere","hanaA"
"<h1>どちらの単語が聞こえましたか</h1>","451","0","iden_exp","hana","deta","2","U","3","","6","hanaU","hanaU","hanaU03-detaA06","451","29","another bottle garden frozen anywhere","hanaU"
"<h1>どちらの単語が聞こえましたか</h1>","731","0","iden_exp","hana","deta","2","U","7","","7","hanaU","hanaU","hanaU07-detaA07","453","29","another bottle garden frozen anywhere","hanaU"
"<h1>どちらの単語が聞こえましたか</h1>","655","0","iden_exp","hana","deta","2","U","11","","9","hanaU","hanaU","hanaU11-detaU09","455","29","another bottle garden frozen anywhere","hanaU"
"<h1>どちらの単語が聞こえましたか</h1>","865","1","iden_exp","hana","deta","2","A","5","","1","hanaA","hanaA","hanaA05-detaU01","457","29","another bottle garden frozen anywhere","hanaA"
"<h1>どちらの単語が聞こえましたか</h1>","560","0","iden_exp","hana","deta","2","A","9","","6","hanaA","hanaU","hanaA09-detaA06","459","29","another bottle garden frozen anywhere","hanaU"
"<h1>どちらの単語が聞こえましたか</h1>","600","1","iden_exp","hana","deta","2","A","11","","1","hanaA","hanaU","hanaA11-detaA01","461","29","another bottle garden frozen anywhere","hanaA"
"<h1>どちらの単語が聞こえましたか</h1>","608","1","iden_exp","hana","deta","2","U","9","","5","hanaU","hanaU","hanaU09-detaA05","463","29","another bottle garden frozen anywhere","hanaU"
"<h1>どちらの単語が聞こえましたか</h1>","648","1","iden_exp","hana","deta","2","U","9","","6","hanaU","hanaU","hanaU09-detaA06","465","29","another bottle garden frozen anywhere","hanaU"
"<h1>どちらの単語が聞こえましたか</h1>","636","1","iden_exp","hana","deta","2","U","1","","9","hanaU","hanaU","hanaU01-detaU09","467","29","another bottle garden frozen anywhere","hanaU"
"<h1>どちらの単語が聞こえましたか</h1>","756","0","iden_exp","hana","deta","2","U","5","","3","hanaU","hanaU","hanaU05-detaU03","469","29","another bottle garden frozen anywhere","hanaU"
"<h1>どちらの単語が聞こえましたか</h1>","633","0","iden_exp","hana","deta","2","A","1","","6","hanaA","hanaA","hanaA01-detaU06","471","29","another bottle garden frozen anywhere","hanaA"
"<h1>どちらの単語が聞こえましたか</h1>","475","1","iden_exp","hana","deta","2","A","1","","7","hanaA","hanaA","hanaA01-detaU07","473","29","another bottle garden frozen anywhere","hanaA"
"<h1>どちらの単語が聞こえましたか</h1>","1102","1","iden_exp","hana","deta","2","A","6","","5","hanaA","hanaU","hanaA06-detaA05","475","30","another bottle garden frozen anywhere","hanaA"
"<h1>どちらの単語が聞こえましたか</h1>","926","1","iden_exp","hana","deta","2","U","6","","1","hanaU","hanaU","hanaU06-detaA01","477","30","another bottle garden frozen anywhere","hanaU"
"<h1>どちらの単語が聞こえましたか</h1>","587","1","iden_exp","hana","deta","2","U","9","","6","hanaU","hanaU","hanaU09-detaU06","479","30","another bottle garden frozen anywhere","hanaU"
"<h1>どちらの単語が聞こえましたか</h1>","487","0","iden_exp","hana","deta","2","A","7","","9","hanaA","hanaU","hanaA07-detaA09","481","30","another bottle garden frozen anywhere","hanaU"
"<h1>どちらの単語が聞こえましたか</h1>","520","1","iden_exp","hana","deta","2","A","7","","6","hanaA","hanaA","hanaA07-detaU06","483","30","another bottle garden frozen anywhere","hanaA"
"<h1>どちらの単語が聞こえましたか</h1>","697","1","iden_exp","hana","deta","2","A","11","","3","hanaA","hanaU","hanaA11-detaA03","485","30","another bottle garden frozen anywhere","hanaA"
"<h1>どちらの単語が聞こえましたか</h1>","566","0","iden_exp","hana","deta","2","U","3","","9","hanaU","hanaU","hanaU03-detaU09","487","30","another bottle garden frozen anywhere","hanaU"
"<h1>どちらの単語が聞こえましたか</h1>","685","1","iden_exp","hana","deta","2","U","7","","9","hanaU","hanaU","hanaU07-detaU09","489","30","another bottle garden frozen anywhere","hanaU"
"<h1>どちらの単語が聞こえましたか</h1>","615","1","iden_exp","hana","deta","2","A","9","","3","hanaA","hanaU","hanaA09-detaA03","491","30","another bottle garden frozen anywhere","hanaA"
"<h1>どちらの単語が聞こえましたか</h1>","763","1","iden_exp","hana","deta","2","U","5","","1","hanaU","hanaU","hanaU05-detaA01","493","30","another bottle garden frozen anywhere","hanaU"
"<h1>どちらの単語が聞こえましたか</h1>","694","1","iden_exp","hana","deta","2","U","7","","3","hanaU","hanaU","hanaU07-detaA03","495","30","another bottle garden frozen anywhere","hanaU"
"<h1>どちらの単語が聞こえましたか</h1>","801","0","iden_exp","hana","deta","2","U","9","","5","hanaU","hanaU","hanaU09-detaU05","497","30","another bottle garden frozen anywhere","hanaU"
"<h1>どちらの単語が聞こえましたか</h1>","617","1","iden_exp","hana","deta","2","U","3","","3","hanaU","hanaU","hanaU03-detaA03","499","30","another bottle garden frozen anywhere","hanaU"
"<h1>どちらの単語が聞こえましたか</h1>","529","1","iden_exp","hana","deta","2","A","6","","3","hanaA","hanaU","hanaA06-detaA03","501","30","another bottle garden frozen anywhere","hanaA"
"<h1>どちらの単語が聞こえましたか</h1>","1069","0","iden_exp","hana","deta","2","U","11","","7","hanaU","hanaU","hanaU11-detaA07","503","30","another bottle garden frozen anywhere","hanaU"
"<h1>どちらの単語が聞こえましたか</h1>","1013","0","iden_exp","hana","deta","2","U","7","","1","hanaU","hanaU","hanaU07-detaU01","505","31","another bottle garden frozen anywhere","hanaU"
"<h1>どちらの単語が聞こえましたか</h1>","599","0","iden_exp","hana","deta","2","U","9","","7","hanaU","hanaU","hanaU09-detaA07","507","31","another bottle garden frozen anywhere","hanaU"
"<h1>どちらの単語が聞こえましたか</h1>","815","0","iden_exp","hana","deta","2","A","7","","1","hanaA","hanaU","hanaA07-detaA01","509","31","another bottle garden frozen anywhere","hanaU"
"<h1>どちらの単語が聞こえましたか</h1>","947","1","iden_exp","hana","deta","2","A","6","","5","hanaA","hanaA","hanaA06-detaU05","511","31","another bottle garden frozen anywhere","hanaA"
"<h1>どちらの単語が聞こえましたか</h1>","673","0","iden_exp","hana","deta","2","U","6","","9","hanaU","hanaU","hanaU06-detaA09","513","31","another bottle garden frozen anywhere","hanaU"
"<h1>どちらの単語が聞こえましたか</h1>","877","0","iden_exp","hana","deta","2","A","1","","11","hanaA","hanaU","hanaA01-detaA11","515","32","another bottle garden frozen anywhere","hanaU"
"<h1>どちらの単語が聞こえましたか</h1>","443","0","iden_exp","hana","deta","2","A","1","","1","hanaA","hanaU","hanaA01-detaA01","517","32","another bottle garden frozen anywhere","hanaU"
"<h1>どちらの単語が聞こえましたか</h1>","565","0","iden_exp","hana","deta","2","A","1","","7","hanaA","hanaU","hanaA01-detaA07","519","32","another bottle garden frozen anywhere","hanaU"
"<h1>どちらの単語が聞こえましたか</h1>","680","1","iden_exp","hana","deta","2","A","3","","3","hanaA","hanaA","hanaA03-detaU03","521","33","another bottle garden frozen anywhere","hanaA"
"<h1>どちらの単語が聞こえましたか</h1>","634","1","iden_exp","hana","deta","2","A","6","","9","hanaA","hanaA","hanaA06-detaU09","523","33","another bottle garden frozen anywhere","hanaA"
"<h1>どちらの単語が聞こえましたか</h1>","836","1","iden_exp","hana","deta","2","U","11","","3","hanaU","hanaU","hanaU11-detaA03","525","33","another bottle garden frozen anywhere","hanaU"
"<h1>どちらの単語が聞こえましたか</h1>","939","0","iden_exp","hana","deta","2","U","5","","9","hanaU","hanaU","hanaU05-detaU09","527","33","another bottle garden frozen anywhere","hanaU"
"<h1>どちらの単語が聞こえましたか</h1>","567","1","iden_exp","hana","deta","2","A","5","","11","hanaA","hanaU","hanaA05-detaA11","529","34","another bottle garden frozen anywhere","hanaA"
"<h1>どちらの単語が聞こえましたか</h1>","521","1","iden_exp","hana","deta","2","U","6","","11","hanaU","hanaU","hanaU06-detaA11","531","34","another bottle garden frozen anywhere","hanaU"
"<h1>どちらの単語が聞こえましたか</h1>","778","0","iden_exp","hana","deta","2","U","7","","3","hanaU","hanaU","hanaU07-detaU03","533","34","another bottle garden frozen anywhere","hanaU"
"<h1>どちらの単語が聞こえましたか</h1>","586","0","iden_exp","hana","deta","2","U","1","","3","hanaU","hanaU","hanaU01-detaU03","535","34","another bottle garden frozen anywhere","hanaU"
"<h1>どちらの単語が聞こえましたか</h1>","574","0","iden_exp","hana","deta","2","A","1","","5","hanaA","hanaA","hanaA01-detaU05","537","34","another bottle garden frozen anywhere","hanaA"
"<h1>どちらの単語が聞こえましたか</h1>","522","0","iden_exp","hana","deta","2","A","1","","9","hanaA","hanaA","hanaA01-detaU09","539","35","another bottle garden frozen anywhere","hanaA"
"<h1>どちらの単語が聞こえましたか</h1>","1176","0","iden_exp","hana","deta","2","A","11","","11","hanaA","hanaU","hanaA11-detaA11","541","35","another bottle garden frozen anywhere","hanaU"
"<h1>どちらの単語が聞こえましたか</h1>","555","1","iden_exp","hana","deta","2","A","6","","11","hanaA","hanaA","hanaA06-detaU11","543","35","another bottle garden frozen anywhere","hanaA"
"<h1>どちらの単語が聞こえましたか</h1>","494","1","iden_exp","hana","deta","2","A","6","","9","hanaA","hanaU","hanaA06-detaA09","545","35","another bottle garden frozen anywhere","hanaA"
"<h1>どちらの単語が聞こえましたか</h1>","472","1","iden_exp","hana","deta","2","U","3","","7","hanaU","hanaU","hanaU03-detaA07","547","35","another bottle garden frozen anywhere","hanaU"
"<h1>どちらの単語が聞こえましたか</h1>","459","0","iden_exp","hana","deta","2","U","7","","11","hanaU","hanaU","hanaU07-detaA11","549","35","another bottle garden frozen anywhere","hanaU"
"<h1>どちらの単語が聞こえましたか</h1>","482","1","iden_exp","hana","deta","2","U","11","","9","hanaU","hanaU","hanaU11-detaA09","551","35","another bottle garden frozen anywhere","hanaU"
"<h1>どちらの単語が聞こえましたか</h1>","538","1","iden_exp","hana","deta","2","U","1","","3","hanaU","hanaU","hanaU01-detaA03","553","35","another bottle garden frozen anywhere","hanaU"
"<h1>どちらの単語が聞こえましたか</h1>","449","0","iden_exp","hana","deta","2","A","5","","9","hanaA","hanaU","hanaA05-detaA09","555","35","another bottle garden frozen anywhere","hanaU"
"<h1>どちらの単語が聞こえましたか</h1>","480","1","iden_exp","hana","deta","2","A","7","","9","hanaA","hanaA","hanaA07-detaU09","557","35","another bottle garden frozen anywhere","hanaA"
"<h1>どちらの単語が聞こえましたか</h1>","767","0","iden_exp","hana","deta","2","U","5","","9","hanaU","hanaU","hanaU05-detaA09","559","35","another bottle garden frozen anywhere","hanaU"
"<h1>どちらの単語が聞こえましたか</h1>","587","1","iden_exp","hana","deta","2","U","9","","3","hanaU","hanaU","hanaU09-detaA03","561","35","another bottle garden frozen anywhere","hanaU"
"<h1>どちらの単語が聞こえましたか</h1>","568","1","iden_exp","hana","deta","2","A","9","","7","hanaA","hanaA","hanaA09-detaU07","563","36","another bottle garden frozen anywhere","hanaA"
"<h1>どちらの単語が聞こえましたか</h1>","724","1","iden_exp","hana","deta","2","A","3","","1","hanaA","hanaA","hanaA03-detaU01","565","36","another bottle garden frozen anywhere","hanaA"
"<h1>どちらの単語が聞こえましたか</h1>","678","0","iden_exp","hana","deta","2","U","5","","5","hanaU","hanaU","hanaU05-detaA05","567","36","another bottle garden frozen anywhere","hanaU"
"<h1>どちらの単語が聞こえましたか</h1>","876","0","iden_exp","hana","deta","2","A","6","","1","hanaA","hanaU","hanaA06-detaA01","569","36","another bottle garden frozen anywhere","hanaU"
"<h1>どちらの単語が聞こえましたか</h1>","683","0","iden_exp","hana","deta","2","A","3","","9","hanaA","hanaU","hanaA03-detaA09","571","36","another bottle garden frozen anywhere","hanaU"
"<h1>どちらの単語が聞こえましたか</h1>","596","1","iden_exp","hana","deta","2","A","3","","11","hanaA","hanaU","hanaA03-detaA11","573","36","another bottle garden frozen anywhere","hanaA"
"<h1>どちらの単語が聞こえましたか</h1>","580","0","iden_exp","hana","deta","2","A","11","","7","hanaA","hanaA","hanaA11-detaU07","575","36","another bottle garden frozen anywhere","hanaA"
"<h1>どちらの単語が聞こえましたか</h1>","755","1","iden_exp","hana","deta","2","U","3","","11","hanaU","hanaU","hanaU03-detaA11","577","36","another bottle garden frozen anywhere","hanaU"
"<h1>どちらの単語が聞こえましたか</h1>","538","1","iden_exp","hana","deta","2","U","5","","1","hanaU","hanaU","hanaU05-detaU01","579","36","another bottle garden frozen anywhere","hanaU"
"<h1>どちらの単語が聞こえましたか</h1>","1112","0","iden_exp","hana","deta","2","U","5","","5","hanaU","hanaU","hanaU05-detaU05","581","36","another bottle garden frozen anywhere","hanaU"
"<h1>どちらの単語が聞こえましたか</h1>","570","1","iden_exp","hana","deta","2","U","5","","6","hanaU","hanaU","hanaU05-detaU06","583","36","another bottle garden frozen anywhere","hanaU"
"<h1>どちらの単語が聞こえましたか</h1>","1105","1","iden_exp","hana","deta","2","A","9","","9","hanaA","hanaU","hanaA09-detaA09","585","36","another bottle garden frozen anywhere","hanaA"
"<h1>どちらの単語が聞こえましたか</h1>","520","0","iden_exp","hana","deta","2","U","6","","3","hanaU","hanaU","hanaU06-detaU03","587","36","another bottle garden frozen anywhere","hanaU"
"<h1>どちらの単語が聞こえましたか</h1>","687","0","iden_exp","hana","deta","2","U","6","","11","hanaU","hanaU","hanaU06-detaU11","589","36","another bottle garden frozen anywhere","hanaU"
"<h1>どちらの単語が聞こえましたか</h1>","610","0","iden_exp","hana","deta","2","A","11","","11","hanaA","hanaA","hanaA11-detaU11","591","36","another bottle garden frozen anywhere","hanaA"
"<h1>どちらの単語が聞こえましたか</h1>","596","1","iden_exp","hana","deta","2","A","7","","5","hanaA","hanaA","hanaA07-detaU05","593","37","another bottle garden frozen anywhere","hanaA"
"<h1>どちらの単語が聞こえましたか</h1>","511","1","iden_exp","hana","deta","2","U","6","","3","hanaU","hanaU","hanaU06-detaA03","595","37","another bottle garden frozen anywhere","hanaU"
"<h1>どちらの単語が聞こえましたか</h1>","613","0","iden_exp","hana","deta","2","U","11","","1","hanaU","hanaU","hanaU11-detaA01","597","37","another bottle garden frozen anywhere","hanaU"
"<h1>どちらの単語が聞こえましたか</h1>","974","1","iden_exp","hana","deta","2","U","3","","7","hanaU","hanaU","hanaU03-detaU07","599","37","another bottle garden frozen anywhere","hanaU"
"<h1>どちらの単語が聞こえましたか</h1>","456","1","iden_exp","hana","deta","2","A","11","","5","hanaA","hanaU","hanaA11-detaA05","601","37","another bottle garden frozen anywhere","hanaA"
"<h1>どちらの単語が聞こえましたか</h1>","874","1","iden_exp","hana","deta","2","A","3","","7","hanaA","hanaA","hanaA03-detaU07","603","37","another bottle garden frozen anywhere","hanaA"
"<h1>どちらの単語が聞こえましたか</h1>","720","0","iden_exp","hana","deta","2","A","3","","3","hanaA","hanaU","hanaA03-detaA03","605","37","another bottle garden frozen anywhere","hanaU"
"<h1>どちらの単語が聞こえましたか</h1>","660","0","iden_exp","hana","deta","2","A","11","","3","hanaA","hanaA","hanaA11-detaU03","607","37","another bottle garden frozen anywhere","hanaA"
"<h1>どちらの単語が聞こえましたか</h1>","842","0","iden_exp","hana","deta","2","U","11","","6","hanaU","hanaU","hanaU11-detaU06","609","37","another bottle garden frozen anywhere","hanaU"
"<h1>どちらの単語が聞こえましたか</h1>","547","1","iden_exp","hana","deta","2","U","5","","6","hanaU","hanaU","hanaU05-detaA06","611","37","another bottle garden frozen anywhere","hanaU"
"<h1>どちらの単語が聞こえましたか</h1>","516","0","iden_exp","hana","deta","2","A","1","","9","hanaA","hanaU","hanaA01-detaA09","613","37","another bottle garden frozen anywhere","hanaU"
"<h1>どちらの単語が聞こえましたか</h1>","549","1","iden_exp","hana","deta","2","A","1","","6","hanaA","hanaU","hanaA01-detaA06","615","37","another bottle garden frozen anywhere","hanaA"
"<h1>どちらの単語が聞こえましたか</h1>","547","0","iden_exp","hana","deta","2","A","3","","6","hanaA","hanaU","hanaA03-detaA06","617","37","another bottle garden frozen anywhere","hanaU"
"<h1>どちらの単語が聞こえましたか</h1>","734","1","iden_exp","hana","deta","2","U","9","","1","hanaU","hanaU","hanaU09-detaA01","619","37","another bottle garden frozen anywhere","hanaU"
"<h1>どちらの単語が聞こえましたか</h1>","646","1","iden_exp","hana","deta","2","U","7","","5","hanaU","hanaU","hanaU07-detaU05","621","37","another bottle garden frozen anywhere","hanaU"
"<h1>どちらの単語が聞こえましたか</h1>","810","1","iden_exp","hana","deta","2","U","3","","6","hanaU","hanaU","hanaU03-detaU06","623","38","another bottle garden frozen anywhere","hanaU"
"<h1>どちらの単語が聞こえましたか</h1>","581","1","iden_exp","hana","deta","2","U","9","","7","hanaU","hanaU","hanaU09-detaU07","625","38","another bottle garden frozen anywhere","hanaU"
"<h1>どちらの単語が聞こえましたか</h1>","645","0","iden_exp","hana","deta","2","A","5","","11","hanaA","hanaA","hanaA05-detaU11","627","38","another bottle garden frozen anywhere","hanaA"
"<h1>どちらの単語が聞こえましたか</h1>","696","1","iden_exp","hana","deta","2","A","6","","11","hanaA","hanaU","hanaA06-detaA11","629","38","another bottle garden frozen anywhere","hanaA"
"<h1>どちらの単語が聞こえましたか</h1>","735","1","iden_exp","hana","deta","2","U","6","","7","hanaU","hanaU","hanaU06-detaA07","631","39","another bottle garden frozen anywhere","hanaU"
"<h1>どちらの単語が聞こえましたか</h1>","608","0","iden_exp","hana","deta","2","A","9","","9","hanaA","hanaA","hanaA09-detaU09","633","39","another bottle garden frozen anywhere","hanaA"
"<h1>どちらの単語が聞こえましたか</h1>","776","0","iden_exp","hana","deta","2","A","9","","3","hanaA","hanaA","hanaA09-detaU03","635","39","another bottle garden frozen anywhere","hanaA"
"<h1>どちらの単語が聞こえましたか</h1>","604","0","iden_exp","hana","deta","2","U","1","","6","hanaU","hanaU","hanaU01-detaA06","637","39","another bottle garden frozen anywhere","hanaU"
"<h1>どちらの単語が聞こえましたか</h1>","564","1","iden_exp","hana","deta","2","A","6","","7","hanaA","hanaA","hanaA06-detaU07","639","39","another bottle garden frozen anywhere","hanaA"
"<h1>どちらの単語が聞こえましたか</h1>","678","1","iden_exp","hana","deta","2","A","5","","6","hanaA","hanaA","hanaA05-detaU06","641","39","another bottle garden frozen anywhere","hanaA"
"<h1>どちらの単語が聞こえましたか</h1>","501","1","iden_exp","hana","deta","2","U","1","","11","hanaU","hanaU","hanaU01-detaA11","643","39","another bottle garden frozen anywhere","hanaU"
"<h1>どちらの単語が聞こえましたか</h1>","941","1","iden_exp","hana","deta","2","U","1","","11","hanaU","hanaU","hanaU01-detaU11","645","39","another bottle garden frozen anywhere","hanaU"
"<h1>どちらの単語が聞こえましたか</h1>","872","0","iden_exp","hana","deta","2","A","3","","11","hanaA","hanaA","hanaA03-detaU11","647","39","another bottle garden frozen anywhere","hanaA"
"<h1>どちらの単語が聞こえましたか</h1>","745","0","iden_exp","hana","deta","2","A","3","","5","hanaA","hanaU","hanaA03-detaA05","649","39","another bottle garden frozen anywhere","hanaU"
"<h1>どちらの単語が聞こえましたか</h1>","702","0","iden_exp","hana","deta","2","U","3","","5","hanaU","hanaU","hanaU03-detaA05","651","39","another bottle garden frozen anywhere","hanaU"
"<h1>どちらの単語が聞こえましたか</h1>","514","1","iden_exp","hana","deta","2","U","9","","3","hanaU","hanaU","hanaU09-detaU03","653","39","another bottle garden frozen anywhere","hanaU"
"<h1>どちらの単語が聞こえましたか</h1>","775","1","iden_exp","hana","deta","2","A","11","","6","hanaA","hanaA","hanaA11-detaU06","655","39","another bottle garden frozen anywhere","hanaA"
"<h1>どちらの単語が聞こえましたか</h1>","760","0","iden_exp","hana","deta","2","U","1","","6","hanaU","hanaU","hanaU01-detaU06","657","39","another bottle garden frozen anywhere","hanaU"
"<h1>どちらの単語が聞こえましたか</h1>","916","0","iden_exp","hana","deta","2","U","7","","6","hanaU","hanaU","hanaU07-detaU06","659","39","another bottle garden frozen anywhere","hanaU"
"<h1>どちらの単語が聞こえましたか</h1>","1070","0","iden_exp","hana","deta","2","A","9","","6","hanaA","hanaA","hanaA09-detaU06","661","39","another bottle garden frozen anywhere","hanaA"
"<h1>どちらの単語が聞こえましたか</h1>","555","1","iden_exp","hana","deta","2","U","11","","7","hanaU","hanaU","hanaU11-detaU07","663","40","another bottle garden frozen anywhere","hanaU"
"<h1>どちらの単語が聞こえましたか</h1>","695","1","iden_exp","hana","deta","2","U","5","","7","hanaU","hanaU","hanaU05-detaU07","665","40","another bottle garden frozen anywhere","hanaU"
"<h1>どちらの単語が聞こえましたか</h1>","635","1","iden_exp","hana","deta","2","U","1","","7","hanaU","hanaU","hanaU01-detaU07","667","40","another bottle garden frozen anywhere","hanaU"
"<h1>どちらの単語が聞こえましたか</h1>","892","1","iden_exp","hana","deta","2","A","7","","11","hanaA","hanaU","hanaA07-detaA11","669","40","another bottle garden frozen anywhere","hanaA"
"<h1>どちらの単語が聞こえましたか</h1>","544","0","iden_exp","hana","deta","2","U","1","","1","hanaU","hanaU","hanaU01-detaU01","671","40","another bottle garden frozen anywhere","hanaU"
"<h1>どちらの単語が聞こえましたか</h1>","651","0","iden_exp","hana","deta","2","U","6","","7","hanaU","hanaU","hanaU06-detaU07","673","40","another bottle garden frozen anywhere","hanaU"
"<h1>どちらの単語が聞こえましたか</h1>","595","1","iden_exp","hana","deta","2","A","9","","7","hanaA","hanaU","hanaA09-detaA07","675","40","another bottle garden frozen anywhere","hanaA"
"<h1>どちらの単語が聞こえましたか</h1>","625","0","iden_exp","hana","deta","2","U","6","","6","hanaU","hanaU","hanaU06-detaU06","677","40","another bottle garden frozen anywhere","hanaU"
"<h1>どちらの単語が聞こえましたか</h1>","540","1","iden_exp","hana","deta","2","A","9","","1","hanaA","hanaA","hanaA09-detaU01","679","40","another bottle garden frozen anywhere","hanaA"
"<h1>どちらの単語が聞こえましたか</h1>","614","1","iden_exp","hana","deta","2","A","5","","3","hanaA","hanaA","hanaA05-detaU03","681","40","another bottle garden frozen anywhere","hanaA"
"<h1>どちらの単語が聞こえましたか</h1>","688","0","iden_exp","hana","deta","2","U","3","","11","hanaU","hanaU","hanaU03-detaU11","683","40","another bottle garden frozen anywhere","hanaU"
"<h1>どちらの単語が聞こえましたか</h1>","582","1","iden_exp","hana","deta","2","U","5","","3","hanaU","hanaU","hanaU05-detaA03","685","40","another bottle garden frozen anywhere","hanaU"
"<h1>どちらの単語が聞こえましたか</h1>","640","0","iden_exp","hana","deta","2","U","7","","6","hanaU","hanaU","hanaU07-detaA06","687","40","another bottle garden frozen anywhere","hanaU"
"<h1>どちらの単語が聞こえましたか</h1>","553","1","iden_exp","hana","deta","2","A","7","","5","hanaA","hanaU","hanaA07-detaA05","689","40","another bottle garden frozen anywhere","hanaA"
"<h1>どちらの単語が聞こえましたか</h1>","655","0","iden_exp","hana","deta","2","A","6","","7","hanaA","hanaU","hanaA06-detaA07","691","40","another bottle garden frozen anywhere","hanaU"
"<h1>どちらの単語が聞こえましたか</h1>","499","0","iden_exp","hana","deta","2","A","9","","5","hanaA","hanaU","hanaA09-detaA05","693","40","another bottle garden frozen anywhere","hanaU"
"<h1>どちらの単語が聞こえましたか</h1>","759","1","iden_exp","hana","deta","2","A","9","","11","hanaA","hanaA","hanaA09-detaU11","695","41","another bottle garden frozen anywhere","hanaA"
"<h1>どちらの単語が聞こえましたか</h1>","561","0","iden_exp","hana","deta","2","U","5","","7","hanaU","hanaU","hanaU05-detaA07","697","41","another bottle garden frozen anywhere","hanaU"
"<h1>どちらの単語が聞こえましたか</h1>","766","1","iden_exp","hana","deta","2","U","7","","5","hanaU","hanaU","hanaU07-detaA05","699","41","another bottle garden frozen anywhere","hanaU"
"<h1>どちらの単語が聞こえましたか</h1>","532","1","iden_exp","hana","deta","2","U","9","","9","hanaU","hanaU","hanaU09-detaU09","701","41","another bottle garden frozen anywhere","hanaU"
"<h1>どちらの単語が聞こえましたか</h1>","523","0","iden_exp","hana","deta","2","A","5","","3","hanaA","hanaU","hanaA05-detaA03","703","41","another bottle garden frozen anywhere","hanaU"
"<h1>どちらの単語が聞こえましたか</h1>","994","1","iden_exp","hana","deta","2","U","1","","9","hanaU","hanaU","hanaU01-detaA09","705","41","another bottle garden frozen anywhere","hanaU"
"<h1>どちらの単語が聞こえましたか</h1>","1016","0","iden_exp","hana","deta","2","A","5","","7","hanaA","hanaU","hanaA05-detaA07","707","41","another bottle garden frozen anywhere","hanaU"
"<h1>どちらの単語が聞こえましたか</h1>","572","1","iden_exp","hana","deta","2","A","3","","7","hanaA","hanaU","hanaA03-detaA07","709","41","another bottle garden frozen anywhere","hanaA"
"<h1>どちらの単語が聞こえましたか</h1>","777","1","iden_exp","hana","deta","2","A","9","","11","hanaA","hanaU","hanaA09-detaA11","711","41","another bottle garden frozen anywhere","hanaA"
"<h1>どちらの単語が聞こえましたか</h1>","688","0","iden_exp","hana","deta","2","U","5","","11","hanaU","hanaU","hanaU05-detaU11","713","41","another bottle garden frozen anywhere","hanaU"
"<h1>どちらの単語が聞こえましたか</h1>","515","0","iden_exp","hana","deta","2","A","11","","7","hanaA","hanaU","hanaA11-detaA07","715","41","another bottle garden frozen anywhere","hanaU"
"<h1>どちらの単語が聞こえましたか</h1>","708","0","iden_exp","hana","deta","2","A","6","","6","hanaA","hanaA","hanaA06-detaU06","717","41","another bottle garden frozen anywhere","hanaA"
"<h1>どちらの単語が聞こえましたか</h1>","765","0","iden_exp","hana","deta","2","U","3","","9","hanaU","hanaU","hanaU03-detaA09","719","41","another bottle garden frozen anywhere","hanaU"
"<h1>どちらの単語が聞こえましたか</h1>","636","1","iden_exp","hana","deta","2","A","5","","1","hanaA","hanaU","hanaA05-detaA01","721","41","another bottle garden frozen anywhere","hanaA"
"<h1>どちらの単語が聞こえましたか</h1>","656","0","iden_exp","hana","deta","2","U","1","","5","hanaU","hanaU","hanaU01-detaU05","723","41","another bottle garden frozen anywhere","hanaU"
"<h1>どちらの単語が聞こえましたか</h1>","729","1","iden_exp","hana","deta","2","A","6","","6","hanaA","hanaU","hanaA06-detaA06","725","41","another bottle garden frozen anywhere","hanaA"
"<h1>どちらの単語が聞こえましたか</h1>","653","1","iden_exp","hana","deta","2","U","3","","5","hanaU","hanaU","hanaU03-detaU05","727","42","another bottle garden frozen anywhere","hanaU"
"<h1>どちらの単語が聞こえましたか</h1>","656","0","iden_exp","hana","deta","2","A","1","","1","hanaA","hanaA","hanaA01-detaU01","729","42","another bottle garden frozen anywhere","hanaA"
"<h1>どちらの単語が聞こえましたか</h1>","733","0","iden_exp","hana","deta","2","U","3","","3","hanaU","hanaU","hanaU03-detaU03","731","42","another bottle garden frozen anywhere","hanaU"
"<h1>どちらの単語が聞こえましたか</h1>","728","0","iden_exp","hana","deta","2","U","3","","1","hanaU","hanaU","hanaU03-detaA01","733","42","another bottle garden frozen anywhere","hanaU"
"<h1>どちらの単語が聞こえましたか</h1>","558","0","iden_exp","hana","deta","2","U","11","","3","hanaU","hanaU","hanaU11-detaU03","735","42","another bottle garden frozen anywhere","hanaU"
"<h1>どちらの単語が聞こえましたか</h1>","526","1","iden_exp","hana","deta","2","U","11","","11","hanaU","hanaU","hanaU11-detaU11","737","42","another bottle garden frozen anywhere","hanaU"
"<h1>どちらの単語が聞こえましたか</h1>","531","0","iden_exp","hana","deta","2","A","1","","3","hanaA","hanaA","hanaA01-detaU03","739","42","another bottle garden frozen anywhere","hanaA"
"<h1>どちらの単語が聞こえましたか</h1>","781","0","iden_exp","hana","deta","2","U","7","","9","hanaU","hanaU","hanaU07-detaA09","741","42","another bottle garden frozen anywhere","hanaU"
"<h1>どちらの単語が聞こえましたか</h1>","604","0","iden_exp","hana","deta","2","A","7","","7","hanaA","hanaA","hanaA07-detaU07","743","42","another bottle garden frozen anywhere","hanaA"
"<h1>どちらの単語が聞こえましたか</h1>","510","1","iden_exp","hana","deta","2","A","11","","5","hanaA","hanaA","hanaA11-detaU05","745","42","another bottle garden frozen anywhere","hanaA"
"<h1>どちらの単語が聞こえましたか</h1>","880","1","iden_exp","hana","deta","2","U","6","","5","hanaU","hanaU","hanaU06-detaA05","747","42","another bottle garden frozen anywhere","hanaU"
"<h1>どちらの単語が聞こえましたか</h1>","547","0","iden_exp","hana","deta","2","U","6","","9","hanaU","hanaU","hanaU06-detaU09","749","42","another bottle garden frozen anywhere","hanaU"
"<h1>どちらの単語が聞こえましたか</h1>","650","1","iden_exp","hana","deta","2","A","7","","7","hanaA","hanaU","hanaA07-detaA07","751","42","another bottle garden frozen anywhere","hanaA"
"<h1>どちらの単語が聞こえましたか</h1>","528","1","iden_exp","hana","deta","2","A","3","","6","hanaA","hanaA","hanaA03-detaU06","753","42","another bottle garden frozen anywhere","hanaA"
"<h1>どちらの単語が聞こえましたか</h1>","676","1","iden_exp","hana","deta","2","U","11","","1","hanaU","hanaU","hanaU11-detaU01","755","42","another bottle garden frozen anywhere","hanaU"
"<h1>どちらの単語が聞こえましたか</h1>","508","0","iden_exp","hana","deta","2","A","3","","1","hanaA","hanaU","hanaA03-detaA01","757","43","another bottle garden frozen anywhere","hanaU"
"<h1>どちらの単語が聞こえましたか</h1>","615","0","iden_exp","hana","deta","2","U","11","","5","hanaU","hanaU","hanaU11-detaA05","759","43","another bottle garden frozen anywhere","hanaU"
"<h1>どちらの単語が聞こえましたか</h1>","542","1","iden_exp","hana","deta","2","U","7","","1","hanaU","hanaU","hanaU07-detaA01","761","43","another bottle garden frozen anywhere","hanaU"
"<h1>どちらの単語が聞こえましたか</h1>","650","0","iden_exp","hana","deta","2","A","5","","9","hanaA","hanaA","hanaA05-detaU09","763","43","another bottle garden frozen anywhere","hanaA"
"<h1>どちらの単語が聞こえましたか</h1>","691","1","iden_exp","hana","deta","2","U","1","","5","hanaU","hanaU","hanaU01-detaA05","765","43","another bottle garden frozen anywhere","hanaU"
"<h1>どちらの単語が聞こえましたか</h1>","605","1","iden_exp","hana","deta","2","U","1","","1","hanaU","hanaU","hanaU01-detaA01","767","43","another bottle garden frozen anywhere","hanaU"
"<h1>どちらの単語が聞こえましたか</h1>","660","0","iden_exp","hana","deta","2","A","7","","1","hanaA","hanaA","hanaA07-detaU01","769","43","another bottle garden frozen anywhere","hanaA"
"<h1>どちらの単語が聞こえましたか</h1>","656","0","iden_exp","hana","deta","2","A","5","","6","hanaA","hanaU","hanaA05-detaA06","771","43","another bottle garden frozen anywhere","hanaU"
"<h1>どちらの単語が聞こえましたか</h1>","657","1","iden_exp","hana","deta","2","A","6","","3","hanaA","hanaA","hanaA06-detaU03","773","43","another bottle garden frozen anywhere","hanaA"
"<h1>どちらの単語が聞こえましたか</h1>","837","0","iden_exp","hana","deta","2","U","9","","11","hanaU","hanaU","hanaU09-detaA11","775","43","another bottle garden frozen anywhere","hanaU"
"<h1>どちらの単語が聞こえましたか</h1>","734","0","iden_exp","hana","deta","2","U","7","","11","hanaU","hanaU","hanaU07-detaU11","777","44","another bottle garden frozen anywhere","hanaU"
"<h1>どちらの単語が聞こえましたか</h1>","880","1","iden_exp","hana","deta","2","U","9","","1","hanaU","hanaU","hanaU09-detaU01","779","44","another bottle garden frozen anywhere","hanaU"
"<h1>どちらの単語が聞こえましたか</h1>","678","1","iden_exp","hana","deta","2","U","11","","6","hanaU","hanaU","hanaU11-detaA06","781","44","another bottle garden frozen anywhere","hanaU"
"<h1>どちらの単語が聞こえましたか</h1>","754","1","iden_exp","hana","deta","2","A","1","","11","hanaA","hanaA","hanaA01-detaU11","783","44","another bottle garden frozen anywhere","hanaA"
"<h1>どちらの単語が聞こえましたか</h1>","519","1","iden_exp","hana","deta","2","A","9","","1","hanaA","hanaU","hanaA09-detaA01","785","44","another bottle garden frozen anywhere","hanaA"
"<h1>どちらの単語が聞こえましたか</h1>","570","0","iden_exp","hana","deta","2","A","11","","1","hanaA","hanaA","hanaA11-detaU01","787","44","another bottle garden frozen anywhere","hanaA"
"<h1>どちらの単語が聞こえましたか</h1>","575","1","iden_exp","hana","deta","2","U","11","","5","hanaU","hanaU","hanaU11-detaU05","789","44","another bottle garden frozen anywhere","hanaU"
"<h1>どちらの単語が聞こえましたか</h1>","696","1","iden_exp","hana","deta","2","A","1","","5","hanaA","hanaU","hanaA01-detaA05","791","44","another bottle garden frozen anywhere","hanaA"
"<h1>どちらの単語が聞こえましたか</h1>","553","1","iden_exp","hana","deta","2","A","1","","3","hanaA","hanaU","hanaA01-detaA03","793","44","another bottle garden frozen anywhere","hanaA"
"<h1>どちらの単語が聞こえましたか</h1>","659","0","iden_exp","hana","deta","2","A","7","","11","hanaA","hanaA","hanaA07-detaU11","795","44","another bottle garden frozen anywhere","hanaA"
"<h1>どちらの単語が聞こえましたか</h1>","918","1","iden_exp","hana","deta","2","A","3","","9","hanaA","hanaA","hanaA03-detaU09","797","44","another bottle garden frozen anywhere","hanaA"
"<h1>どちらの単語が聞こえましたか</h1>","515","0","iden_exp","hana","deta","2","U","6","","5","hanaU","hanaU","hanaU06-detaU05","799","44","another bottle garden frozen anywhere","hanaU"
"<h1>どちらの単語が聞こえましたか</h1>","504","1","iden_exp","hana","deta","2","U","9","","9","hanaU","hanaU","hanaU09-detaA09","801","44","another bottle garden frozen anywhere","hanaU"
"<h1>どちらの単語が聞こえましたか</h1>","531","1","iden_exp","hana","deta","2","U","9","","11","hanaU","hanaU","hanaU09-detaU11","803","45","another bottle garden frozen anywhere","hanaU"
"<h1>どちらの単語が聞こえましたか</h1>","774","0","iden_exp","hana","deta","2","U","7","","7","hanaU","hanaU","hanaU07-detaU07","805","45","another bottle garden frozen anywhere","hanaU"
