"stimulus","rt","response","phase","word","wordAccentStep","carrierAccentStep","option_0","option_1","sound","trial_index","time_elapsed","participantID","answer","block"
"<h1>どちらの単語が聞こえましたか</h1>","523","1","practice","hana","1","","hanaA","hanaU","hanaA01-detaA01","4","3","bone hello","hanaU",""
"<h1>どちらの単語が聞こえましたか</h1>","562","1","practice","hana","11","","hanaA","hanaU","hanaA11-detaA11","6","3","bone hello","hanaU",""
"<h1>どちらの単語が聞こえましたか</h1>","568","0","practice","hana","1","","hanaA","hanaU","hanaU01-detaU01","8","4","bone hello","hanaA",""
"<h1>どちらの単語が聞こえましたか</h1>","754","1","practice","hana","11","","hanaA","hanaU","hanaU11-detaU11","10","4","bone hello","hanaU",""
"<h1>どちらの単語が聞こえましたか</h1>","608","0","practice","hana","1","","hanaA","hanaU","hanaA01-detaU01","13","4","bone hello","hanaU",""
"<h1>どちらの単語が聞こえましたか</h1>","543","1","practice","hana","11","","hanaA","hanaU","hanaA11-detaU11","15","4","bone hello","hanaA",""
"<h1>どちらの単語が聞こえましたか</h1>","932","1","practice","hana","1","","hanaA","hanaU","hanaU01-detaA01","17","4","bone hello","hanaA",""
"<h1>どちらの単語が聞こえましたか</h1>","505","1","practice","hana","11","","hanaA","hanaU","hanaU11-detaA11","19","4","bone hello","hanaA",""
"<h1>どちらの単語が聞こえましたか</h1>","513","0","iden_exp","hana","5","","hanaA","hanaU","hanaA05-detaA09","22","4","bone hello","hanaA","1"
"<h1>どちらの単語が聞こえましたか</h1>","619","0","iden_exp","hana","7","","hanaU","hanaU","hanaU07-detaU09","24","4","bone hello","hanaU","1"
"<h1>どちらの単語が聞こえましたか</h1>","690","1","iden_exp","hana","11","","hanaA","hanaA","hanaA11-detaU01","26","5","bone hello","hanaA","1"
"<h1>どちらの単語が聞こえましたか</h1>","842","0","iden_exp","hana","1","","hanaA","hanaA","hanaA01-detaU01","28","5","bone hello","hanaA","1"
"<h1>どちらの単語が聞こえましたか</h1>","561","1","iden_exp","hana","7","","hanaU","hanaU","hanaU07-detaA05","30","5","bone hello","hanaU","1"
"<h1>どちらの単語が聞こえましたか</h1>","678","1","iden_exp","hana","7","","hanaA","hanaU","hanaA07-detaA05","32","5","bone hello","hanaU","1"
"<h1>どちらの単語が聞こえましたか</h1>","584","0","iden_exp","hana","11","","hanaU","hanaU","hanaU11-detaA03","34","5","bone hello","hanaU","1"
"<h1>どちらの単語が聞こえましたか</h1>","848","1","iden_exp","hana","3","","hanaA","hanaU","hanaA03-detaA07","36","5","bone hello","hanaU","1"
"<h1>どちらの単語が聞こえましたか</h1>","631","0","iden_exp","hana","6","","hanaA","hanaU","hanaA06-detaA03","38","5","bone hello","hanaA","1"
"<h1>どちらの単語が聞こえましたか</h1>","641","0","iden_exp","hana","5","","hanaU","hanaU","hanaU05-detaU05","40","5","bone hello","hanaU","1"
"<h1>どちらの単語が聞こえましたか</h1>","549","0","iden_exp","hana","5","","hanaU","hanaU","hanaU05-detaU03","42","5","bone hello","hanaU","1"
"<h1>どちらの単語が聞こえましたか</h1>","740","0","iden_exp","hana","11","","hanaU","hanaU","hanaU11-detaA07","44","5","bone hello","hanaU","1"
"<h1>どちらの単語が聞こえましたか</h1>","483","0","iden_exp","hana","9","","hanaA","hanaA","hanaA09-detaU09","46","6","bone hello","hanaA","1"
"<h1>どちらの単語が聞こえましたか</h1>","566","0","iden_exp","hana","5","","hanaA","hanaU","hanaA05-detaA03","48","6","bone hello","hanaA","1"
"<h1>どちらの単語が聞こえましたか</h1>","580","1","iden_exp","hana","11","","hanaA","hanaA","hanaA11-detaU07","50","6","bone hello","hanaA","1"
"<h1>どちらの単語が聞こえましたか</h1>","497","1","iden_exp","hana","9","","hanaU","hanaU","hanaU09-detaA03","52","6","bone hello","hanaU","1"
"<h1>どちらの単語が聞こえましたか</h1>","493","1","iden_exp","hana","6","","hanaA","hanaU","hanaA06-detaA05","54","6","bone hello","hanaU","1"
"<h1>どちらの単語が聞こえましたか</h1>","500","1","iden_exp","hana","3","","hanaU","hanaU","hanaU03-detaA07","56","6","bone hello","hanaU","1"
"<h1>どちらの単語が聞こえましたか</h1>","678","0","iden_exp","hana","6","","hanaA","hanaA","hanaA06-detaU09","58","6","bone hello","hanaA","1"
"<h1>どちらの単語が聞こえましたか</h1>","656","1","iden_exp","hana","3","","hanaA","hanaU","hanaA03-detaA01","60","6","bone hello","hanaU","1"
"<h1>どちらの単語が聞こえましたか</h1>","946","1","iden_exp","hana","6","","hanaU","hanaU","hanaU06-detaU07","62","6","bone hello","hanaU","1"
"<h1>どちらの単語が聞こえましたか</h1>","930","1","iden_exp","hana","3","","hanaU","hanaU","hanaU03-detaU06","64","6","bone hello","hanaU","1"
"<h1>どちらの単語が聞こえましたか</h1>","564","1","iden_exp","hana","11","","hanaA","hanaA","hanaA11-detaU09","66","7","bone hello","hanaA","1"
"<h1>どちらの単語が聞こえましたか</h1>","829","0","iden_exp","hana","5","","hanaU","hanaU","hanaU05-detaA01","68","7","bone hello","hanaU","1"
"<h1>どちらの単語が聞こえましたか</h1>","998","1","iden_exp","hana","3","","hanaU","hanaU","hanaU03-detaU07","70","7","bone hello","hanaU","1"
"<h1>どちらの単語が聞こえましたか</h1>","537","1","iden_exp","hana","6","","hanaU","hanaU","hanaU06-detaA06","72","7","bone hello","hanaU","1"
"<h1>どちらの単語が聞こえましたか</h1>","824","0","iden_exp","hana","9","","hanaA","hanaA","hanaA09-detaU06","74","7","bone hello","hanaA","1"
"<h1>どちらの単語が聞こえましたか</h1>","774","1","iden_exp","hana","1","","hanaU","hanaU","hanaU01-detaU09","76","7","bone hello","hanaU","1"
"<h1>どちらの単語が聞こえましたか</h1>","908","0","iden_exp","hana","7","","hanaU","hanaU","hanaU07-detaU01","78","8","bone hello","hanaU","1"
"<h1>どちらの単語が聞こえましたか</h1>","569","1","iden_exp","hana","3","","hanaA","hanaU","hanaA03-detaA09","80","9","bone hello","hanaU","1"
"<h1>どちらの単語が聞こえましたか</h1>","703","1","iden_exp","hana","6","","hanaU","hanaU","hanaU06-detaU06","82","9","bone hello","hanaU","1"
"<h1>どちらの単語が聞こえましたか</h1>","561","1","iden_exp","hana","5","","hanaU","hanaU","hanaU05-detaA06","84","9","bone hello","hanaU","1"
"<h1>どちらの単語が聞こえましたか</h1>","572","0","iden_exp","hana","3","","hanaU","hanaU","hanaU03-detaU09","86","9","bone hello","hanaU","1"
"<h1>どちらの単語が聞こえましたか</h1>","525","0","iden_exp","hana","7","","hanaU","hanaU","hanaU07-detaA01","88","9","bone hello","hanaU","1"
"<h1>どちらの単語が聞こえましたか</h1>","508","1","iden_exp","hana","6","","hanaU","hanaU","hanaU06-detaU05","90","9","bone hello","hanaU","1"
"<h1>どちらの単語が聞こえましたか</h1>","728","0","iden_exp","hana","5","","hanaA","hanaA","hanaA05-detaU07","92","9","bone hello","hanaA","1"
"<h1>どちらの単語が聞こえましたか</h1>","641","0","iden_exp","hana","7","","hanaU","hanaU","hanaU07-detaA11","94","9","bone hello","hanaU","1"
"<h1>どちらの単語が聞こえましたか</h1>","475","0","iden_exp","hana","9","","hanaA","hanaA","hanaA09-detaU11","96","9","bone hello","hanaA","1"
"<h1>どちらの単語が聞こえましたか</h1>","629","1","iden_exp","hana","1","","hanaU","hanaU","hanaU01-detaU06","98","9","bone hello","hanaU","1"
"<h1>どちらの単語が聞こえましたか</h1>","768","0","iden_exp","hana","1","","hanaA","hanaA","hanaA01-detaU06","100","9","bone hello","hanaA","1"
"<h1>どちらの単語が聞こえましたか</h1>","535","0","iden_exp","hana","1","","hanaA","hanaU","hanaA01-detaA09","102","9","bone hello","hanaA","1"
"<h1>どちらの単語が聞こえましたか</h1>","879","1","iden_exp","hana","3","","hanaU","hanaU","hanaU03-detaU05","104","10","bone hello","hanaU","1"
"<h1>どちらの単語が聞こえましたか</h1>","661","0","iden_exp","hana","5","","hanaU","hanaU","hanaU05-detaU09","106","10","bone hello","hanaU","1"
"<h1>どちらの単語が聞こえましたか</h1>","489","1","iden_exp","hana","7","","hanaA","hanaA","hanaA07-detaU05","108","10","bone hello","hanaA","1"
"<h1>どちらの単語が聞こえましたか</h1>","592","1","iden_exp","hana","3","","hanaA","hanaA","hanaA03-detaU07","110","10","bone hello","hanaA","1"
"<h1>どちらの単語が聞こえましたか</h1>","494","0","iden_exp","hana","3","","hanaA","hanaA","hanaA03-detaU05","112","10","bone hello","hanaA","1"
"<h1>どちらの単語が聞こえましたか</h1>","482","1","iden_exp","hana","3","","hanaU","hanaU","hanaU03-detaU03","114","10","bone hello","hanaU","1"
"<h1>どちらの単語が聞こえましたか</h1>","750","0","iden_exp","hana","5","","hanaA","hanaU","hanaA05-detaA05","116","10","bone hello","hanaA","1"
"<h1>どちらの単語が聞こえましたか</h1>","567","0","iden_exp","hana","1","","hanaU","hanaU","hanaU01-detaA09","118","10","bone hello","hanaU","1"
"<h1>どちらの単語が聞こえましたか</h1>","525","1","iden_exp","hana","11","","hanaU","hanaU","hanaU11-detaA06","120","10","bone hello","hanaU","1"
"<h1>どちらの単語が聞こえましたか</h1>","787","0","iden_exp","hana","11","","hanaA","hanaA","hanaA11-detaU06","122","10","bone hello","hanaA","1"
"<h1>どちらの単語が聞こえましたか</h1>","771","1","iden_exp","hana","7","","hanaU","hanaU","hanaU07-detaU07","124","11","bone hello","hanaU","1"
"<h1>どちらの単語が聞こえましたか</h1>","462","1","iden_exp","hana","9","","hanaU","hanaU","hanaU09-detaA05","126","11","bone hello","hanaU","1"
"<h1>どちらの単語が聞こえましたか</h1>","627","0","iden_exp","hana","1","","hanaU","hanaU","hanaU01-detaA05","128","11","bone hello","hanaU","1"
"<h1>どちらの単語が聞こえましたか</h1>","559","0","iden_exp","hana","3","","hanaU","hanaU","hanaU03-detaU11","130","11","bone hello","hanaU","1"
"<h1>どちらの単語が聞こえましたか</h1>","640","0","iden_exp","hana","3","","hanaA","hanaU","hanaA03-detaA05","132","12","bone hello","hanaA","1"
"<h1>どちらの単語が聞こえましたか</h1>","550","0","iden_exp","hana","1","","hanaU","hanaU","hanaU01-detaU01","134","12","bone hello","hanaU","1"
"<h1>どちらの単語が聞こえましたか</h1>","672","1","iden_exp","hana","6","","hanaU","hanaU","hanaU06-detaA09","136","12","bone hello","hanaU","1"
"<h1>どちらの単語が聞こえましたか</h1>","828","1","iden_exp","hana","3","","hanaA","hanaU","hanaA03-detaA03","138","12","bone hello","hanaU","1"
"<h1>どちらの単語が聞こえましたか</h1>","517","1","iden_exp","hana","9","","hanaU","hanaU","hanaU09-detaU01","140","12","bone hello","hanaU","1"
"<h1>どちらの単語が聞こえましたか</h1>","865","1","iden_exp","hana","11","","hanaU","hanaU","hanaU11-detaU06","142","12","bone hello","hanaU","1"
"<h1>どちらの単語が聞こえましたか</h1>","673","1","iden_exp","hana","9","","hanaA","hanaA","hanaA09-detaU03","144","13","bone hello","hanaA","1"
"<h1>どちらの単語が聞こえましたか</h1>","556","1","iden_exp","hana","5","","hanaA","hanaA","hanaA05-detaU05","146","13","bone hello","hanaA","1"
"<h1>どちらの単語が聞こえましたか</h1>","490","0","iden_exp","hana","7","","hanaU","hanaU","hanaU07-detaU05","148","13","bone hello","hanaU","1"
"<h1>どちらの単語が聞こえましたか</h1>","820","1","iden_exp","hana","1","","hanaA","hanaU","hanaA01-detaA06","150","13","bone hello","hanaU","1"
"<h1>どちらの単語が聞こえましたか</h1>","850","1","iden_exp","hana","6","","hanaA","hanaA","hanaA06-detaU05","152","13","bone hello","hanaA","1"
"<h1>どちらの単語が聞こえましたか</h1>","596","0","iden_exp","hana","9","","hanaU","hanaU","hanaU09-detaU07","154","13","bone hello","hanaU","1"
"<h1>どちらの単語が聞こえましたか</h1>","715","0","iden_exp","hana","11","","hanaA","hanaA","hanaA11-detaU03","156","13","bone hello","hanaA","1"
"<h1>どちらの単語が聞こえましたか</h1>","468","0","iden_exp","hana","7","","hanaU","hanaU","hanaU07-detaU06","158","14","bone hello","hanaU","1"
"<h1>どちらの単語が聞こえましたか</h1>","753","0","iden_exp","hana","9","","hanaU","hanaU","hanaU09-detaU05","160","14","bone hello","hanaU","1"
"<h1>どちらの単語が聞こえましたか</h1>","654","1","iden_exp","hana","3","","hanaU","hanaU","hanaU03-detaA09","162","14","bone hello","hanaU","1"
"<h1>どちらの単語が聞こえましたか</h1>","887","1","iden_exp","hana","3","","hanaU","hanaU","hanaU03-detaA11","164","14","bone hello","hanaU","1"
"<h1>どちらの単語が聞こえましたか</h1>","693","1","iden_exp","hana","1","","hanaU","hanaU","hanaU01-detaA06","166","14","bone hello","hanaU","1"
"<h1>どちらの単語が聞こえましたか</h1>","678","1","iden_exp","hana","6","","hanaA","hanaA","hanaA06-detaU11","168","14","bone hello","hanaA","1"
"<h1>どちらの単語が聞こえましたか</h1>","588","1","iden_exp","hana","5","","hanaU","hanaU","hanaU05-detaU11","170","15","bone hello","hanaU","1"
"<h1>どちらの単語が聞こえましたか</h1>","627","0","iden_exp","hana","7","","hanaA","hanaA","hanaA07-detaU01","172","15","bone hello","hanaA","1"
"<h1>どちらの単語が聞こえましたか</h1>","555","0","iden_exp","hana","11","","hanaU","hanaU","hanaU11-detaA11","174","15","bone hello","hanaU","1"
"<h1>どちらの単語が聞こえましたか</h1>","628","0","iden_exp","hana","9","","hanaU","hanaU","hanaU09-detaA07","176","15","bone hello","hanaU","1"
"<h1>どちらの単語が聞こえましたか</h1>","644","1","iden_exp","hana","1","","hanaU","hanaU","hanaU01-detaA07","178","15","bone hello","hanaU","1"
"<h1>どちらの単語が聞こえましたか</h1>","601","0","iden_exp","hana","5","","hanaU","hanaU","hanaU05-detaA11","180","15","bone hello","hanaU","1"
"<h1>どちらの単語が聞こえましたか</h1>","709","1","iden_exp","hana","3","","hanaA","hanaA","hanaA03-detaU06","182","15","bone hello","hanaA","1"
"<h1>どちらの単語が聞こえましたか</h1>","778","1","iden_exp","hana","9","","hanaU","hanaU","hanaU09-detaA11","184","15","bone hello","hanaU","1"
"<h1>どちらの単語が聞こえましたか</h1>","514","1","iden_exp","hana","5","","hanaA","hanaA","hanaA05-detaU01","186","16","bone hello","hanaA","1"
"<h1>どちらの単語が聞こえましたか</h1>","483","1","iden_exp","hana","6","","hanaA","hanaU","hanaA06-detaA01","188","16","bone hello","hanaU","1"
"<h1>どちらの単語が聞こえましたか</h1>","868","1","iden_exp","hana","1","","hanaU","hanaU","hanaU01-detaU05","190","16","bone hello","hanaU","1"
"<h1>どちらの単語が聞こえましたか</h1>","975","0","iden_exp","hana","1","","hanaA","hanaU","hanaA01-detaA11","192","16","bone hello","hanaA","1"
"<h1>どちらの単語が聞こえましたか</h1>","649","0","iden_exp","hana","3","","hanaU","hanaU","hanaU03-detaU01","194","16","bone hello","hanaU","1"
"<h1>どちらの単語が聞こえましたか</h1>","562","0","iden_exp","hana","3","","hanaA","hanaA","hanaA03-detaU09","196","16","bone hello","hanaA","1"
"<h1>どちらの単語が聞こえましたか</h1>","498","0","iden_exp","hana","3","","hanaA","hanaU","hanaA03-detaA06","198","16","bone hello","hanaA","1"
"<h1>どちらの単語が聞こえましたか</h1>","775","1","iden_exp","hana","11","","hanaU","hanaU","hanaU11-detaU07","200","16","bone hello","hanaU","1"
"<h1>どちらの単語が聞こえましたか</h1>","859","1","iden_exp","hana","3","","hanaA","hanaA","hanaA03-detaU03","202","17","bone hello","hanaA","1"
"<h1>どちらの単語が聞こえましたか</h1>","619","1","iden_exp","hana","6","","hanaU","hanaU","hanaU06-detaU01","204","17","bone hello","hanaU","1"
"<h1>どちらの単語が聞こえましたか</h1>","560","0","iden_exp","hana","3","","hanaU","hanaU","hanaU03-detaA06","206","17","bone hello","hanaU","1"
"<h1>どちらの単語が聞こえましたか</h1>","612","0","iden_exp","hana","11","","hanaA","hanaU","hanaA11-detaA07","208","17","bone hello","hanaA","1"
"<h1>どちらの単語が聞こえましたか</h1>","527","0","iden_exp","hana","7","","hanaA","hanaU","hanaA07-detaA09","210","17","bone hello","hanaA","1"
"<h1>どちらの単語が聞こえましたか</h1>","699","0","iden_exp","hana","7","","hanaU","hanaU","hanaU07-detaU11","212","17","bone hello","hanaU","1"
"<h1>どちらの単語が聞こえましたか</h1>","497","1","iden_exp","hana","7","","hanaA","hanaA","hanaA07-detaU11","214","17","bone hello","hanaA","1"
"<h1>どちらの単語が聞こえましたか</h1>","475","0","iden_exp","hana","5","","hanaA","hanaU","hanaA05-detaA06","216","17","bone hello","hanaA","1"
"<h1>どちらの単語が聞こえましたか</h1>","524","0","iden_exp","hana","7","","hanaA","hanaU","hanaA07-detaA06","218","18","bone hello","hanaA","1"
"<h1>どちらの単語が聞こえましたか</h1>","552","0","iden_exp","hana","6","","hanaA","hanaU","hanaA06-detaA06","220","18","bone hello","hanaA","1"
"<h1>どちらの単語が聞こえましたか</h1>","911","1","iden_exp","hana","9","","hanaA","hanaU","hanaA09-detaA03","222","18","bone hello","hanaU","1"
"<h1>どちらの単語が聞こえましたか</h1>","485","0","iden_exp","hana","9","","hanaA","hanaU","hanaA09-detaA11","224","18","bone hello","hanaA","1"
"<h1>どちらの単語が聞こえましたか</h1>","463","0","iden_exp","hana","1","","hanaU","hanaU","hanaU01-detaA01","226","18","bone hello","hanaU","1"
"<h1>どちらの単語が聞こえましたか</h1>","669","1","iden_exp","hana","5","","hanaA","hanaU","hanaA05-detaA11","228","18","bone hello","hanaU","1"
"<h1>どちらの単語が聞こえましたか</h1>","660","1","iden_exp","hana","6","","hanaU","hanaU","hanaU06-detaU09","230","18","bone hello","hanaU","1"
"<h1>どちらの単語が聞こえましたか</h1>","622","1","iden_exp","hana","11","","hanaU","hanaU","hanaU11-detaU03","232","18","bone hello","hanaU","1"
"<h1>どちらの単語が聞こえましたか</h1>","623","0","iden_exp","hana","11","","hanaU","hanaU","hanaU11-detaA09","234","19","bone hello","hanaU","1"
"<h1>どちらの単語が聞こえましたか</h1>","535","1","iden_exp","hana","9","","hanaU","hanaU","hanaU09-detaU11","236","19","bone hello","hanaU","1"
"<h1>どちらの単語が聞こえましたか</h1>","580","1","iden_exp","hana","6","","hanaU","hanaU","hanaU06-detaA07","238","19","bone hello","hanaU","1"
"<h1>どちらの単語が聞こえましたか</h1>","714","0","iden_exp","hana","11","","hanaU","hanaU","hanaU11-detaU09","240","19","bone hello","hanaU","1"
"<h1>どちらの単語が聞こえましたか</h1>","458","0","iden_exp","hana","9","","hanaA","hanaU","hanaA09-detaA07","242","19","bone hello","hanaA","1"
"<h1>どちらの単語が聞こえましたか</h1>","963","0","iden_exp","hana","3","","hanaU","hanaU","hanaU03-detaA03","244","19","bone hello","hanaU","1"
"<h1>どちらの単語が聞こえましたか</h1>","639","1","iden_exp","hana","11","","hanaU","hanaU","hanaU11-detaU01","246","19","bone hello","hanaU","1"
"<h1>どちらの単語が聞こえましたか</h1>","912","0","iden_exp","hana","1","","hanaU","hanaU","hanaU01-detaA11","248","19","bone hello","hanaU","1"
"<h1>どちらの単語が聞こえましたか</h1>","810","1","iden_exp","hana","11","","hanaA","hanaU","hanaA11-detaA05","250","19","bone hello","hanaU","1"
"<h1>どちらの単語が聞こえましたか</h1>","575","1","iden_exp","hana","11","","hanaU","hanaU","hanaU11-detaA05","252","19","bone hello","hanaU","1"
"<h1>どちらの単語が聞こえましたか</h1>","631","0","iden_exp","hana","3","","hanaU","hanaU","hanaU03-detaA01","254","19","bone hello","hanaU","1"
"<h1>どちらの単語が聞こえましたか</h1>","512","0","iden_exp","hana","7","","hanaA","hanaU","hanaA07-detaA03","256","19","bone hello","hanaA","1"
"<h1>どちらの単語が聞こえましたか</h1>","578","0","iden_exp","hana","9","","hanaU","hanaU","hanaU09-detaU09","258","20","bone hello","hanaU","1"
"<h1>どちらの単語が聞こえましたか</h1>","559","1","iden_exp","hana","11","","hanaA","hanaU","hanaA11-detaA06","260","20","bone hello","hanaU","1"
"<h1>どちらの単語が聞こえましたか</h1>","504","1","iden_exp","hana","1","","hanaA","hanaU","hanaA01-detaA07","262","20","bone hello","hanaU","1"
"<h1>どちらの単語が聞こえましたか</h1>","666","0","iden_exp","hana","6","","hanaA","hanaU","hanaA06-detaA11","264","20","bone hello","hanaA","1"
"<h1>どちらの単語が聞こえましたか</h1>","653","1","iden_exp","hana","6","","hanaU","hanaU","hanaU06-detaA03","266","20","bone hello","hanaU","1"
"<h1>どちらの単語が聞こえましたか</h1>","681","1","iden_exp","hana","5","","hanaA","hanaU","hanaA05-detaA01","268","20","bone hello","hanaU","1"
"<h1>どちらの単語が聞こえましたか</h1>","611","0","iden_exp","hana","9","","hanaU","hanaU","hanaU09-detaA06","270","20","bone hello","hanaU","1"
"<h1>どちらの単語が聞こえましたか</h1>","702","0","iden_exp","hana","5","","hanaU","hanaU","hanaU05-detaU07","272","20","bone hello","hanaU","1"
"<h1>どちらの単語が聞こえましたか</h1>","645","0","iden_exp","hana","7","","hanaU","hanaU","hanaU07-detaU03","274","20","bone hello","hanaU","1"
"<h1>どちらの単語が聞こえましたか</h1>","816","0","iden_exp","hana","5","","hanaU","hanaU","hanaU05-detaA07","276","20","bone hello","hanaU","1"
"<h1>どちらの単語が聞こえましたか</h1>","639","1","iden_exp","hana","1","","hanaA","hanaA","hanaA01-detaU05","278","20","bone hello","hanaA","1"
"<h1>どちらの単語が聞こえましたか</h1>","810","0","iden_exp","hana","9","","hanaU","hanaU","hanaU09-detaU06","280","21","bone hello","hanaU","1"
"<h1>どちらの単語が聞こえましたか</h1>","585","0","iden_exp","hana","7","","hanaA","hanaU","hanaA07-detaA07","282","21","bone hello","hanaA","1"
"<h1>どちらの単語が聞こえましたか</h1>","788","0","iden_exp","hana","7","","hanaA","hanaA","hanaA07-detaU03","284","21","bone hello","hanaA","1"
"<h1>どちらの単語が聞こえましたか</h1>","613","0","iden_exp","hana","6","","hanaU","hanaU","hanaU06-detaU11","286","21","bone hello","hanaU","1"
"<h1>どちらの単語が聞こえましたか</h1>","636","0","iden_exp","hana","9","","hanaU","hanaU","hanaU09-detaA09","288","21","bone hello","hanaU","1"
"<h1>どちらの単語が聞こえましたか</h1>","752","0","iden_exp","hana","1","","hanaU","hanaU","hanaU01-detaU11","290","21","bone hello","hanaU","1"
"<h1>どちらの単語が聞こえましたか</h1>","576","0","iden_exp","hana","6","","hanaA","hanaA","hanaA06-detaU03","292","21","bone hello","hanaA","1"
"<h1>どちらの単語が聞こえましたか</h1>","535","0","iden_exp","hana","5","","hanaA","hanaU","hanaA05-detaA07","294","21","bone hello","hanaA","1"
"<h1>どちらの単語が聞こえましたか</h1>","546","0","iden_exp","hana","7","","hanaA","hanaU","hanaA07-detaA01","296","21","bone hello","hanaA","1"
"<h1>どちらの単語が聞こえましたか</h1>","529","0","iden_exp","hana","1","","hanaA","hanaU","hanaA01-detaA01","298","22","bone hello","hanaA","1"
"<h1>どちらの単語が聞こえましたか</h1>","981","1","iden_exp","hana","6","","hanaA","hanaA","hanaA06-detaU07","300","22","bone hello","hanaA","1"
"<h1>どちらの単語が聞こえましたか</h1>","549","1","iden_exp","hana","11","","hanaA","hanaU","hanaA11-detaA09","302","22","bone hello","hanaU","1"
"<h1>どちらの単語が聞こえましたか</h1>","534","0","iden_exp","hana","9","","hanaA","hanaU","hanaA09-detaA06","304","22","bone hello","hanaA","1"
"<h1>どちらの単語が聞こえましたか</h1>","920","0","iden_exp","hana","5","","hanaU","hanaU","hanaU05-detaU01","306","22","bone hello","hanaU","1"
"<h1>どちらの単語が聞こえましたか</h1>","529","0","iden_exp","hana","5","","hanaU","hanaU","hanaU05-detaA09","308","22","bone hello","hanaU","1"
"<h1>どちらの単語が聞こえましたか</h1>","488","0","iden_exp","hana","7","","hanaU","hanaU","hanaU07-detaA06","310","22","bone hello","hanaU","1"
"<h1>どちらの単語が聞こえましたか</h1>","1194","1","iden_exp","hana","7","","hanaA","hanaA","hanaA07-detaU09","312","22","bone hello","hanaA","1"
"<h1>どちらの単語が聞こえましたか</h1>","593","0","iden_exp","hana","6","","hanaA","hanaU","hanaA06-detaA07","314","22","bone hello","hanaA","1"
"<h1>どちらの単語が聞こえましたか</h1>","542","0","iden_exp","hana","5","","hanaU","hanaU","hanaU05-detaA05","316","22","bone hello","hanaU","1"
"<h1>どちらの単語が聞こえましたか</h1>","873","1","iden_exp","hana","9","","hanaA","hanaU","hanaA09-detaA01","318","22","bone hello","hanaU","1"
"<h1>どちらの単語が聞こえましたか</h1>","530","0","iden_exp","hana","1","","hanaA","hanaA","hanaA01-detaU03","320","22","bone hello","hanaA","1"
"<h1>どちらの単語が聞こえましたか</h1>","615","0","iden_exp","hana","5","","hanaU","hanaU","hanaU05-detaA03","322","22","bone hello","hanaU","1"
"<h1>どちらの単語が聞こえましたか</h1>","825","1","iden_exp","hana","11","","hanaU","hanaU","hanaU11-detaA01","324","23","bone hello","hanaU","1"
"<h1>どちらの単語が聞こえましたか</h1>","727","1","iden_exp","hana","1","","hanaA","hanaU","hanaA01-detaA03","326","23","bone hello","hanaU","1"
"<h1>どちらの単語が聞こえましたか</h1>","1194","0","iden_exp","hana","3","","hanaU","hanaU","hanaU03-detaA05","328","23","bone hello","hanaU","1"
"<h1>どちらの単語が聞こえましたか</h1>","522","1","iden_exp","hana","1","","hanaA","hanaU","hanaA01-detaA05","330","23","bone hello","hanaU","1"
"<h1>どちらの単語が聞こえましたか</h1>","795","0","iden_exp","hana","11","","hanaA","hanaU","hanaA11-detaA11","332","23","bone hello","hanaA","1"
"<h1>どちらの単語が聞こえましたか</h1>","511","0","iden_exp","hana","1","","hanaU","hanaU","hanaU01-detaU07","334","23","bone hello","hanaU","1"
"<h1>どちらの単語が聞こえましたか</h1>","701","1","iden_exp","hana","1","","hanaA","hanaA","hanaA01-detaU09","336","23","bone hello","hanaA","1"
"<h1>どちらの単語が聞こえましたか</h1>","685","1","iden_exp","hana","1","","hanaU","hanaU","hanaU01-detaA03","338","23","bone hello","hanaU","1"
"<h1>どちらの単語が聞こえましたか</h1>","524","0","iden_exp","hana","1","","hanaU","hanaU","hanaU01-detaU03","340","23","bone hello","hanaU","1"
"<h1>どちらの単語が聞こえましたか</h1>","593","1","iden_exp","hana","11","","hanaA","hanaU","hanaA11-detaA03","342","23","bone hello","hanaU","1"
"<h1>どちらの単語が聞こえましたか</h1>","610","0","iden_exp","hana","11","","hanaU","hanaU","hanaU11-detaU05","344","23","bone hello","hanaU","1"
"<h1>どちらの単語が聞こえましたか</h1>","623","0","iden_exp","hana","9","","hanaA","hanaU","hanaA09-detaA09","346","23","bone hello","hanaA","1"
"<h1>どちらの単語が聞こえましたか</h1>","691","0","iden_exp","hana","5","","hanaU","hanaU","hanaU05-detaU06","348","23","bone hello","hanaU","1"
"<h1>どちらの単語が聞こえましたか</h1>","681","1","iden_exp","hana","11","","hanaA","hanaA","hanaA11-detaU11","350","24","bone hello","hanaA","1"
"<h1>どちらの単語が聞こえましたか</h1>","817","1","iden_exp","hana","6","","hanaA","hanaA","hanaA06-detaU06","352","24","bone hello","hanaA","1"
"<h1>どちらの単語が聞こえましたか</h1>","729","1","iden_exp","hana","7","","hanaA","hanaA","hanaA07-detaU07","354","24","bone hello","hanaA","1"
"<h1>どちらの単語が聞こえましたか</h1>","787","1","iden_exp","hana","6","","hanaU","hanaU","hanaU06-detaA05","356","24","bone hello","hanaU","1"
"<h1>どちらの単語が聞こえましたか</h1>","535","1","iden_exp","hana","7","","hanaU","hanaU","hanaU07-detaA07","358","24","bone hello","hanaU","1"
"<h1>どちらの単語が聞こえましたか</h1>","839","0","iden_exp","hana","6","","hanaU","hanaU","hanaU06-detaA01","360","24","bone hello","hanaU","1"
"<h1>どちらの単語が聞こえましたか</h1>","537","0","iden_exp","hana","7","","hanaA","hanaU","hanaA07-detaA11","362","24","bone hello","hanaA","1"
"<h1>どちらの単語が聞こえましたか</h1>","559","0","iden_exp","hana","6","","hanaU","hanaU","hanaU06-detaU03","364","24","bone hello","hanaU","1"
"<h1>どちらの単語が聞こえましたか</h1>","733","0","iden_exp","hana","9","","hanaA","hanaA","hanaA09-detaU05","366","24","bone hello","hanaA","1"
"<h1>どちらの単語が聞こえましたか</h1>","521","0","iden_exp","hana","9","","hanaU","hanaU","hanaU09-detaU03","368","24","bone hello","hanaU","1"
"<h1>どちらの単語が聞こえましたか</h1>","435","0","iden_exp","hana","5","","hanaA","hanaA","hanaA05-detaU03","370","24","bone hello","hanaA","1"
"<h1>どちらの単語が聞こえましたか</h1>","915","0","iden_exp","hana","3","","hanaA","hanaU","hanaA03-detaA11","372","24","bone hello","hanaA","1"
"<h1>どちらの単語が聞こえましたか</h1>","539","0","iden_exp","hana","9","","hanaU","hanaU","hanaU09-detaA01","374","25","bone hello","hanaU","1"
"<h1>どちらの単語が聞こえましたか</h1>","615","0","iden_exp","hana","11","","hanaA","hanaA","hanaA11-detaU05","376","25","bone hello","hanaA","1"
"<h1>どちらの単語が聞こえましたか</h1>","522","0","iden_exp","hana","7","","hanaA","hanaA","hanaA07-detaU06","378","25","bone hello","hanaA","1"
"<h1>どちらの単語が聞こえましたか</h1>","538","1","iden_exp","hana","11","","hanaU","hanaU","hanaU11-detaU11","380","25","bone hello","hanaU","1"
"<h1>どちらの単語が聞こえましたか</h1>","656","0","iden_exp","hana","5","","hanaA","hanaA","hanaA05-detaU11","382","25","bone hello","hanaA","1"
"<h1>どちらの単語が聞こえましたか</h1>","1196","0","iden_exp","hana","5","","hanaA","hanaA","hanaA05-detaU09","384","25","bone hello","hanaA","1"
"<h1>どちらの単語が聞こえましたか</h1>","561","1","iden_exp","hana","11","","hanaA","hanaU","hanaA11-detaA01","386","25","bone hello","hanaU","1"
"<h1>どちらの単語が聞こえましたか</h1>","877","1","iden_exp","hana","7","","hanaU","hanaU","hanaU07-detaA09","388","25","bone hello","hanaU","1"
"<h1>どちらの単語が聞こえましたか</h1>","624","1","iden_exp","hana","7","","hanaU","hanaU","hanaU07-detaA03","390","25","bone hello","hanaU","1"
"<h1>どちらの単語が聞こえましたか</h1>","776","0","iden_exp","hana","9","","hanaA","hanaA","hanaA09-detaU07","392","25","bone hello","hanaA","1"
"<h1>どちらの単語が聞こえましたか</h1>","572","1","iden_exp","hana","3","","hanaA","hanaA","hanaA03-detaU01","394","25","bone hello","hanaA","1"
"<h1>どちらの単語が聞こえましたか</h1>","458","1","iden_exp","hana","3","","hanaA","hanaA","hanaA03-detaU11","396","25","bone hello","hanaA","1"
"<h1>どちらの単語が聞こえましたか</h1>","589","1","iden_exp","hana","5","","hanaA","hanaA","hanaA05-detaU06","398","26","bone hello","hanaA","1"
"<h1>どちらの単語が聞こえましたか</h1>","726","0","iden_exp","hana","6","","hanaU","hanaU","hanaU06-detaA11","400","26","bone hello","hanaU","1"
"<h1>どちらの単語が聞こえましたか</h1>","650","0","iden_exp","hana","9","","hanaA","hanaA","hanaA09-detaU01","402","26","bone hello","hanaA","1"
"<h1>どちらの単語が聞こえましたか</h1>","832","0","iden_exp","hana","1","","hanaA","hanaA","hanaA01-detaU11","404","26","bone hello","hanaA","1"
"<h1>どちらの単語が聞こえましたか</h1>","467","1","iden_exp","hana","6","","hanaA","hanaA","hanaA06-detaU01","406","26","bone hello","hanaA","1"
"<h1>どちらの単語が聞こえましたか</h1>","607","0","iden_exp","hana","6","","hanaA","hanaU","hanaA06-detaA09","408","26","bone hello","hanaA","1"
"<h1>どちらの単語が聞こえましたか</h1>","523","0","iden_exp","hana","1","","hanaA","hanaA","hanaA01-detaU07","410","26","bone hello","hanaA","1"
"<h1>どちらの単語が聞こえましたか</h1>","536","1","iden_exp","hana","9","","hanaA","hanaU","hanaA09-detaA05","412","26","bone hello","hanaU","1"
"<h1>どちらの単語が聞こえましたか</h1>","584","1","iden_exp","hana","7","","hanaA","hanaU","hanaA07-detaA11","415","27","bone hello","hanaA","2"
"<h1>どちらの単語が聞こえましたか</h1>","641","0","iden_exp","hana","1","","hanaU","hanaU","hanaU01-detaA11","417","27","bone hello","hanaU","2"
"<h1>どちらの単語が聞こえましたか</h1>","519","1","iden_exp","hana","3","","hanaU","hanaU","hanaU03-detaA03","419","27","bone hello","hanaU","2"
"<h1>どちらの単語が聞こえましたか</h1>","472","0","iden_exp","hana","11","","hanaU","hanaU","hanaU11-detaA06","421","27","bone hello","hanaU","2"
"<h1>どちらの単語が聞こえましたか</h1>","482","0","iden_exp","hana","3","","hanaU","hanaU","hanaU03-detaU03","423","27","bone hello","hanaU","2"
"<h1>どちらの単語が聞こえましたか</h1>","615","0","iden_exp","hana","11","","hanaA","hanaA","hanaA11-detaU09","425","27","bone hello","hanaA","2"
"<h1>どちらの単語が聞こえましたか</h1>","510","0","iden_exp","hana","7","","hanaA","hanaA","hanaA07-detaU01","427","28","bone hello","hanaA","2"
"<h1>どちらの単語が聞こえましたか</h1>","532","1","iden_exp","hana","3","","hanaA","hanaU","hanaA03-detaA11","429","28","bone hello","hanaA","2"
"<h1>どちらの単語が聞こえましたか</h1>","542","0","iden_exp","hana","11","","hanaU","hanaU","hanaU11-detaU01","431","28","bone hello","hanaU","2"
"<h1>どちらの単語が聞こえましたか</h1>","670","0","iden_exp","hana","1","","hanaA","hanaU","hanaA01-detaA06","433","28","bone hello","hanaU","2"
"<h1>どちらの単語が聞こえましたか</h1>","616","0","iden_exp","hana","3","","hanaU","hanaU","hanaU03-detaU07","435","28","bone hello","hanaU","2"
"<h1>どちらの単語が聞こえましたか</h1>","532","1","iden_exp","hana","9","","hanaU","hanaU","hanaU09-detaA01","437","28","bone hello","hanaU","2"
"<h1>どちらの単語が聞こえましたか</h1>","602","0","iden_exp","hana","6","","hanaA","hanaU","hanaA06-detaA09","439","29","bone hello","hanaU","2"
"<h1>どちらの単語が聞こえましたか</h1>","812","0","iden_exp","hana","9","","hanaA","hanaU","hanaA09-detaA01","441","29","bone hello","hanaU","2"
"<h1>どちらの単語が聞こえましたか</h1>","748","1","iden_exp","hana","11","","hanaU","hanaU","hanaU11-detaU03","443","29","bone hello","hanaU","2"
"<h1>どちらの単語が聞こえましたか</h1>","704","0","iden_exp","hana","1","","hanaU","hanaU","hanaU01-detaA07","445","29","bone hello","hanaU","2"
"<h1>どちらの単語が聞こえましたか</h1>","641","1","iden_exp","hana","3","","hanaU","hanaU","hanaU03-detaU06","447","29","bone hello","hanaU","2"
"<h1>どちらの単語が聞こえましたか</h1>","575","0","iden_exp","hana","5","","hanaA","hanaA","hanaA05-detaU07","449","29","bone hello","hanaA","2"
"<h1>どちらの単語が聞こえましたか</h1>","829","1","iden_exp","hana","5","","hanaA","hanaU","hanaA05-detaA05","451","29","bone hello","hanaA","2"
"<h1>どちらの単語が聞こえましたか</h1>","626","1","iden_exp","hana","5","","hanaU","hanaU","hanaU05-detaU03","453","29","bone hello","hanaU","2"
"<h1>どちらの単語が聞こえましたか</h1>","539","1","iden_exp","hana","1","","hanaU","hanaU","hanaU01-detaA03","455","29","bone hello","hanaU","2"
"<h1>どちらの単語が聞こえましたか</h1>","501","1","iden_exp","hana","11","","hanaA","hanaA","hanaA11-detaU07","457","30","bone hello","hanaA","2"
"<h1>どちらの単語が聞こえましたか</h1>","571","0","iden_exp","hana","3","","hanaA","hanaA","hanaA03-detaU11","459","30","bone hello","hanaA","2"
"<h1>どちらの単語が聞こえましたか</h1>","585","0","iden_exp","hana","3","","hanaA","hanaU","hanaA03-detaA05","461","30","bone hello","hanaU","2"
"<h1>どちらの単語が聞こえましたか</h1>","769","0","iden_exp","hana","11","","hanaU","hanaU","hanaU11-detaA11","463","30","bone hello","hanaU","2"
"<h1>どちらの単語が聞こえましたか</h1>","446","0","iden_exp","hana","6","","hanaU","hanaU","hanaU06-detaU07","465","30","bone hello","hanaU","2"
"<h1>どちらの単語が聞こえましたか</h1>","847","0","iden_exp","hana","3","","hanaU","hanaU","hanaU03-detaU09","467","30","bone hello","hanaU","2"
"<h1>どちらの単語が聞こえましたか</h1>","624","1","iden_exp","hana","7","","hanaA","hanaA","hanaA07-detaU06","469","30","bone hello","hanaA","2"
"<h1>どちらの単語が聞こえましたか</h1>","575","0","iden_exp","hana","11","","hanaA","hanaU","hanaA11-detaA07","471","30","bone hello","hanaU","2"
"<h1>どちらの単語が聞こえましたか</h1>","674","1","iden_exp","hana","1","","hanaA","hanaA","hanaA01-detaU11","473","31","bone hello","hanaA","2"
"<h1>どちらの単語が聞こえましたか</h1>","758","0","iden_exp","hana","9","","hanaU","hanaU","hanaU09-detaU01","475","31","bone hello","hanaU","2"
"<h1>どちらの単語が聞こえましたか</h1>","542","0","iden_exp","hana","9","","hanaU","hanaU","hanaU09-detaU09","477","31","bone hello","hanaU","2"
"<h1>どちらの単語が聞こえましたか</h1>","878","1","iden_exp","hana","6","","hanaU","hanaU","hanaU06-detaU09","479","31","bone hello","hanaU","2"
"<h1>どちらの単語が聞こえましたか</h1>","594","1","iden_exp","hana","7","","hanaU","hanaU","hanaU07-detaU11","481","31","bone hello","hanaU","2"
"<h1>どちらの単語が聞こえましたか</h1>","661","0","iden_exp","hana","5","","hanaU","hanaU","hanaU05-detaU07","483","31","bone hello","hanaU","2"
"<h1>どちらの単語が聞こえましたか</h1>","499","0","iden_exp","hana","9","","hanaU","hanaU","hanaU09-detaU11","485","31","bone hello","hanaU","2"
"<h1>どちらの単語が聞こえましたか</h1>","692","1","iden_exp","hana","5","","hanaU","hanaU","hanaU05-detaA05","487","32","bone hello","hanaU","2"
"<h1>どちらの単語が聞こえましたか</h1>","1046","1","iden_exp","hana","3","","hanaA","hanaU","hanaA03-detaA06","489","32","bone hello","hanaA","2"
"<h1>どちらの単語が聞こえましたか</h1>","510","1","iden_exp","hana","1","","hanaU","hanaU","hanaU01-detaA06","491","32","bone hello","hanaU","2"
"<h1>どちらの単語が聞こえましたか</h1>","684","1","iden_exp","hana","7","","hanaU","hanaU","hanaU07-detaU05","493","32","bone hello","hanaU","2"
"<h1>どちらの単語が聞こえましたか</h1>","618","0","iden_exp","hana","11","","hanaU","hanaU","hanaU11-detaA01","495","32","bone hello","hanaU","2"
"<h1>どちらの単語が聞こえましたか</h1>","806","0","iden_exp","hana","11","","hanaA","hanaU","hanaA11-detaA06","497","32","bone hello","hanaU","2"
"<h1>どちらの単語が聞こえましたか</h1>","1020","1","iden_exp","hana","1","","hanaA","hanaA","hanaA01-detaU07","499","32","bone hello","hanaA","2"
"<h1>どちらの単語が聞こえましたか</h1>","684","1","iden_exp","hana","5","","hanaU","hanaU","hanaU05-detaA09","501","32","bone hello","hanaU","2"
"<h1>どちらの単語が聞こえましたか</h1>","527","0","iden_exp","hana","1","","hanaU","hanaU","hanaU01-detaU03","503","32","bone hello","hanaU","2"
"<h1>どちらの単語が聞こえましたか</h1>","671","1","iden_exp","hana","6","","hanaA","hanaA","hanaA06-detaU09","505","32","bone hello","hanaA","2"
"<h1>どちらの単語が聞こえましたか</h1>","745","0","iden_exp","hana","9","","hanaA","hanaU","hanaA09-detaA09","507","32","bone hello","hanaU","2"
"<h1>どちらの単語が聞こえましたか</h1>","556","0","iden_exp","hana","9","","hanaA","hanaA","hanaA09-detaU01","509","32","bone hello","hanaA","2"
"<h1>どちらの単語が聞こえましたか</h1>","820","0","iden_exp","hana","11","","hanaU","hanaU","hanaU11-detaA03","511","33","bone hello","hanaU","2"
"<h1>どちらの単語が聞こえましたか</h1>","505","1","iden_exp","hana","7","","hanaU","hanaU","hanaU07-detaU06","513","33","bone hello","hanaU","2"
"<h1>どちらの単語が聞こえましたか</h1>","526","0","iden_exp","hana","6","","hanaA","hanaA","hanaA06-detaU11","515","33","bone hello","hanaA","2"
"<h1>どちらの単語が聞こえましたか</h1>","745","1","iden_exp","hana","9","","hanaA","hanaU","hanaA09-detaA06","517","33","bone hello","hanaA","2"
"<h1>どちらの単語が聞こえましたか</h1>","654","1","iden_exp","hana","6","","hanaU","hanaU","hanaU06-detaA07","519","33","bone hello","hanaU","2"
"<h1>どちらの単語が聞こえましたか</h1>","555","1","iden_exp","hana","1","","hanaU","hanaU","hanaU01-detaU01","521","34","bone hello","hanaU","2"
"<h1>どちらの単語が聞こえましたか</h1>","707","1","iden_exp","hana","9","","hanaU","hanaU","hanaU09-detaU07","523","34","bone hello","hanaU","2"
"<h1>どちらの単語が聞こえましたか</h1>","1085","0","iden_exp","hana","7","","hanaU","hanaU","hanaU07-detaA01","525","34","bone hello","hanaU","2"
"<h1>どちらの単語が聞こえましたか</h1>","580","0","iden_exp","hana","5","","hanaU","hanaU","hanaU05-detaU05","527","34","bone hello","hanaU","2"
"<h1>どちらの単語が聞こえましたか</h1>","660","0","iden_exp","hana","7","","hanaU","hanaU","hanaU07-detaU03","529","34","bone hello","hanaU","2"
"<h1>どちらの単語が聞こえましたか</h1>","734","1","iden_exp","hana","3","","hanaU","hanaU","hanaU03-detaA01","531","34","bone hello","hanaU","2"
"<h1>どちらの単語が聞こえましたか</h1>","565","0","iden_exp","hana","1","","hanaA","hanaA","hanaA01-detaU05","533","34","bone hello","hanaA","2"
"<h1>どちらの単語が聞こえましたか</h1>","598","0","iden_exp","hana","1","","hanaU","hanaU","hanaU01-detaU07","535","34","bone hello","hanaU","2"
"<h1>どちらの単語が聞こえましたか</h1>","841","0","iden_exp","hana","6","","hanaA","hanaU","hanaA06-detaA01","537","34","bone hello","hanaU","2"
"<h1>どちらの単語が聞こえましたか</h1>","535","1","iden_exp","hana","1","","hanaA","hanaA","hanaA01-detaU03","539","34","bone hello","hanaA","2"
"<h1>どちらの単語が聞こえましたか</h1>","732","1","iden_exp","hana","6","","hanaU","hanaU","hanaU06-detaU05","541","34","bone hello","hanaU","2"
"<h1>どちらの単語が聞こえましたか</h1>","1357","0","iden_exp","hana","3","","hanaA","hanaA","hanaA03-detaU03","543","34","bone hello","hanaA","2"
"<h1>どちらの単語が聞こえましたか</h1>","523","1","iden_exp","hana","3","","hanaA","hanaU","hanaA03-detaA09","545","34","bone hello","hanaA","2"
"<h1>どちらの単語が聞こえましたか</h1>","562","1","iden_exp","hana","7","","hanaA","hanaU","hanaA07-detaA01","547","35","bone hello","hanaA","2"
"<h1>どちらの単語が聞こえましたか</h1>","822","1","iden_exp","hana","1","","hanaA","hanaA","hanaA01-detaU06","549","35","bone hello","hanaA","2"
"<h1>どちらの単語が聞こえましたか</h1>","439","0","iden_exp","hana","5","","hanaU","hanaU","hanaU05-detaU11","551","35","bone hello","hanaU","2"
"<h1>どちらの単語が聞こえましたか</h1>","623","1","iden_exp","hana","6","","hanaU","hanaU","hanaU06-detaA11","553","35","bone hello","hanaU","2"
"<h1>どちらの単語が聞こえましたか</h1>","756","0","iden_exp","hana","7","","hanaU","hanaU","hanaU07-detaA11","555","35","bone hello","hanaU","2"
"<h1>どちらの単語が聞こえましたか</h1>","665","1","iden_exp","hana","1","","hanaU","hanaU","hanaU01-detaU06","557","35","bone hello","hanaU","2"
"<h1>どちらの単語が聞こえましたか</h1>","542","1","iden_exp","hana","9","","hanaU","hanaU","hanaU09-detaA06","559","35","bone hello","hanaU","2"
"<h1>どちらの単語が聞こえましたか</h1>","626","1","iden_exp","hana","3","","hanaA","hanaA","hanaA03-detaU06","561","35","bone hello","hanaA","2"
"<h1>どちらの単語が聞こえましたか</h1>","820","0","iden_exp","hana","7","","hanaU","hanaU","hanaU07-detaU07","563","35","bone hello","hanaU","2"
"<h1>どちらの単語が聞こえましたか</h1>","728","1","iden_exp","hana","6","","hanaU","hanaU","hanaU06-detaU06","565","35","bone hello","hanaU","2"
"<h1>どちらの単語が聞こえましたか</h1>","467","0","iden_exp","hana","5","","hanaA","hanaU","hanaA05-detaA09","567","35","bone hello","hanaU","2"
"<h1>どちらの単語が聞こえましたか</h1>","670","0","iden_exp","hana","6","","hanaA","hanaA","hanaA06-detaU06","569","35","bone hello","hanaA","2"
"<h1>どちらの単語が聞こえましたか</h1>","720","1","iden_exp","hana","9","","hanaA","hanaU","hanaA09-detaA03","571","35","bone hello","hanaA","2"
"<h1>どちらの単語が聞こえましたか</h1>","581","0","iden_exp","hana","7","","hanaA","hanaA","hanaA07-detaU05","573","35","bone hello","hanaA","2"
"<h1>どちらの単語が聞こえましたか</h1>","509","0","iden_exp","hana","11","","hanaA","hanaU","hanaA11-detaA03","575","36","bone hello","hanaU","2"
"<h1>どちらの単語が聞こえましたか</h1>","932","1","iden_exp","hana","9","","hanaA","hanaA","hanaA09-detaU07","577","36","bone hello","hanaA","2"
"<h1>どちらの単語が聞こえましたか</h1>","652","0","iden_exp","hana","1","","hanaU","hanaU","hanaU01-detaA09","579","36","bone hello","hanaU","2"
"<h1>どちらの単語が聞こえましたか</h1>","516","1","iden_exp","hana","11","","hanaA","hanaA","hanaA11-detaU01","581","36","bone hello","hanaA","2"
"<h1>どちらの単語が聞こえましたか</h1>","581","1","iden_exp","hana","9","","hanaA","hanaU","hanaA09-detaA05","583","36","bone hello","hanaA","2"
"<h1>どちらの単語が聞こえましたか</h1>","778","1","iden_exp","hana","6","","hanaA","hanaU","hanaA06-detaA03","585","36","bone hello","hanaA","2"
"<h1>どちらの単語が聞こえましたか</h1>","1100","0","iden_exp","hana","11","","hanaA","hanaA","hanaA11-detaU03","587","36","bone hello","hanaA","2"
"<h1>どちらの単語が聞こえましたか</h1>","598","1","iden_exp","hana","5","","hanaA","hanaU","hanaA05-detaA03","589","36","bone hello","hanaA","2"
"<h1>どちらの単語が聞こえましたか</h1>","665","1","iden_exp","hana","3","","hanaA","hanaA","hanaA03-detaU09","591","37","bone hello","hanaA","2"
"<h1>どちらの単語が聞こえましたか</h1>","648","0","iden_exp","hana","9","","hanaU","hanaU","hanaU09-detaA11","593","37","bone hello","hanaU","2"
"<h1>どちらの単語が聞こえましたか</h1>","640","1","iden_exp","hana","7","","hanaA","hanaU","hanaA07-detaA06","595","37","bone hello","hanaA","2"
"<h1>どちらの単語が聞こえましたか</h1>","656","1","iden_exp","hana","6","","hanaU","hanaU","hanaU06-detaU01","597","37","bone hello","hanaU","2"
"<h1>どちらの単語が聞こえましたか</h1>","562","1","iden_exp","hana","7","","hanaA","hanaU","hanaA07-detaA03","599","37","bone hello","hanaA","2"
"<h1>どちらの単語が聞こえましたか</h1>","714","1","iden_exp","hana","6","","hanaU","hanaU","hanaU06-detaA09","601","37","bone hello","hanaU","2"
"<h1>どちらの単語が聞こえましたか</h1>","682","0","iden_exp","hana","6","","hanaA","hanaA","hanaA06-detaU03","603","37","bone hello","hanaA","2"
"<h1>どちらの単語が聞こえましたか</h1>","659","1","iden_exp","hana","9","","hanaA","hanaU","hanaA09-detaA07","605","37","bone hello","hanaA","2"
"<h1>どちらの単語が聞こえましたか</h1>","445","1","iden_exp","hana","3","","hanaA","hanaA","hanaA03-detaU01","607","37","bone hello","hanaA","2"
"<h1>どちらの単語が聞こえましたか</h1>","654","0","iden_exp","hana","3","","hanaU","hanaU","hanaU03-detaU05","609","37","bone hello","hanaU","2"
"<h1>どちらの単語が聞こえましたか</h1>","537","0","iden_exp","hana","1","","hanaA","hanaU","hanaA01-detaA05","611","37","bone hello","hanaU","2"
"<h1>どちらの単語が聞こえましたか</h1>","1013","0","iden_exp","hana","5","","hanaA","hanaA","hanaA05-detaU09","613","37","bone hello","hanaA","2"
"<h1>どちらの単語が聞こえましたか</h1>","654","0","iden_exp","hana","6","","hanaU","hanaU","hanaU06-detaA05","615","38","bone hello","hanaU","2"
"<h1>どちらの単語が聞こえましたか</h1>","617","0","iden_exp","hana","11","","hanaU","hanaU","hanaU11-detaU05","617","38","bone hello","hanaU","2"
"<h1>どちらの単語が聞こえましたか</h1>","520","0","iden_exp","hana","1","","hanaA","hanaU","hanaA01-detaA01","619","38","bone hello","hanaU","2"
"<h1>どちらの単語が聞こえましたか</h1>","491","0","iden_exp","hana","6","","hanaU","hanaU","hanaU06-detaA03","621","38","bone hello","hanaU","2"
"<h1>どちらの単語が聞こえましたか</h1>","654","0","iden_exp","hana","3","","hanaU","hanaU","hanaU03-detaU01","623","38","bone hello","hanaU","2"
"<h1>どちらの単語が聞こえましたか</h1>","638","1","iden_exp","hana","7","","hanaU","hanaU","hanaU07-detaA09","625","38","bone hello","hanaU","2"
"<h1>どちらの単語が聞こえましたか</h1>","675","0","iden_exp","hana","11","","hanaU","hanaU","hanaU11-detaU07","627","38","bone hello","hanaU","2"
"<h1>どちらの単語が聞こえましたか</h1>","540","1","iden_exp","hana","9","","hanaU","hanaU","hanaU09-detaA09","629","38","bone hello","hanaU","2"
"<h1>どちらの単語が聞こえましたか</h1>","598","1","iden_exp","hana","9","","hanaU","hanaU","hanaU09-detaA07","631","38","bone hello","hanaU","2"
"<h1>どちらの単語が聞こえましたか</h1>","709","0","iden_exp","hana","3","","hanaU","hanaU","hanaU03-detaA09","633","38","bone hello","hanaU","2"
"<h1>どちらの単語が聞こえましたか</h1>","507","1","iden_exp","hana","6","","hanaU","hanaU","hanaU06-detaU11","635","39","bone hello","hanaU","2"
"<h1>どちらの単語が聞こえましたか</h1>","751","0","iden_exp","hana","6","","hanaA","hanaU","hanaA06-detaA06","637","39","bone hello","hanaU","2"
"<h1>どちらの単語が聞こえましたか</h1>","587","0","iden_exp","hana","7","","hanaU","hanaU","hanaU07-detaA03","639","39","bone hello","hanaU","2"
"<h1>どちらの単語が聞こえましたか</h1>","608","1","iden_exp","hana","5","","hanaA","hanaA","hanaA05-detaU05","641","39","bone hello","hanaA","2"
"<h1>どちらの単語が聞こえましたか</h1>","715","1","iden_exp","hana","9","","hanaA","hanaU","hanaA09-detaA11","643","39","bone hello","hanaA","2"
"<h1>どちらの単語が聞こえましたか</h1>","743","0","iden_exp","hana","3","","hanaA","hanaU","hanaA03-detaA03","645","39","bone hello","hanaU","2"
"<h1>どちらの単語が聞こえましたか</h1>","512","0","iden_exp","hana","9","","hanaA","hanaA","hanaA09-detaU05","647","39","bone hello","hanaA","2"
"<h1>どちらの単語が聞こえましたか</h1>","925","0","iden_exp","hana","1","","hanaU","hanaU","hanaU01-detaU11","649","39","bone hello","hanaU","2"
"<h1>どちらの単語が聞こえましたか</h1>","542","0","iden_exp","hana","5","","hanaU","hanaU","hanaU05-detaU06","651","39","bone hello","hanaU","2"
"<h1>どちらの単語が聞こえましたか</h1>","671","1","iden_exp","hana","5","","hanaA","hanaA","hanaA05-detaU03","653","39","bone hello","hanaA","2"
"<h1>どちらの単語が聞こえましたか</h1>","683","1","iden_exp","hana","6","","hanaA","hanaU","hanaA06-detaA11","655","39","bone hello","hanaA","2"
"<h1>どちらの単語が聞こえましたか</h1>","600","0","iden_exp","hana","7","","hanaA","hanaA","hanaA07-detaU09","657","39","bone hello","hanaA","2"
"<h1>どちらの単語が聞こえましたか</h1>","631","1","iden_exp","hana","3","","hanaA","hanaU","hanaA03-detaA07","659","39","bone hello","hanaA","2"
"<h1>どちらの単語が聞こえましたか</h1>","731","1","iden_exp","hana","5","","hanaU","hanaU","hanaU05-detaA01","661","39","bone hello","hanaU","2"
"<h1>どちらの単語が聞こえましたか</h1>","416","0","iden_exp","hana","5","","hanaU","hanaU","hanaU05-detaA07","663","39","bone hello","hanaU","2"
"<h1>どちらの単語が聞こえましたか</h1>","588","0","iden_exp","hana","1","","hanaU","hanaU","hanaU01-detaA05","665","40","bone hello","hanaU","2"
"<h1>どちらの単語が聞こえましたか</h1>","538","0","iden_exp","hana","6","","hanaU","hanaU","hanaU06-detaU03","667","40","bone hello","hanaU","2"
"<h1>どちらの単語が聞こえましたか</h1>","516","1","iden_exp","hana","3","","hanaU","hanaU","hanaU03-detaA05","669","40","bone hello","hanaU","2"
"<h1>どちらの単語が聞こえましたか</h1>","654","1","iden_exp","hana","7","","hanaA","hanaU","hanaA07-detaA05","671","40","bone hello","hanaA","2"
"<h1>どちらの単語が聞こえましたか</h1>","651","1","iden_exp","hana","9","","hanaU","hanaU","hanaU09-detaU05","673","40","bone hello","hanaU","2"
"<h1>どちらの単語が聞こえましたか</h1>","547","1","iden_exp","hana","7","","hanaA","hanaU","hanaA07-detaA07","675","40","bone hello","hanaA","2"
"<h1>どちらの単語が聞こえましたか</h1>","832","1","iden_exp","hana","7","","hanaA","hanaU","hanaA07-detaA09","677","41","bone hello","hanaA","2"
"<h1>どちらの単語が聞こえましたか</h1>","399","0","iden_exp","hana","11","","hanaA","hanaA","hanaA11-detaU06","679","41","bone hello","hanaA","2"
"<h1>どちらの単語が聞こえましたか</h1>","643","0","iden_exp","hana","11","","hanaU","hanaU","hanaU11-detaA07","681","41","bone hello","hanaU","2"
"<h1>どちらの単語が聞こえましたか</h1>","546","0","iden_exp","hana","7","","hanaA","hanaA","hanaA07-detaU03","683","41","bone hello","hanaA","2"
"<h1>どちらの単語が聞こえましたか</h1>","818","0","iden_exp","hana","9","","hanaU","hanaU","hanaU09-detaA03","685","41","bone hello","hanaU","2"
"<h1>どちらの単語が聞こえましたか</h1>","545","0","iden_exp","hana","11","","hanaA","hanaU","hanaA11-detaA01","687","41","bone hello","hanaU","2"
"<h1>どちらの単語が聞こえましたか</h1>","653","1","iden_exp","hana","5","","hanaA","hanaU","hanaA05-detaA11","689","41","bone hello","hanaA","2"
"<h1>どちらの単語が聞こえましたか</h1>","643","1","iden_exp","hana","5","","hanaA","hanaU","hanaA05-detaA06","691","41","bone hello","hanaA","2"
"<h1>どちらの単語が聞こえましたか</h1>","550","0","iden_exp","hana","5","","hanaU","hanaU","hanaU05-detaU09","693","41","bone hello","hanaU","2"
"<h1>どちらの単語が聞こえましたか</h1>","1487","0","iden_exp","hana","3","","hanaA","hanaA","hanaA03-detaU05","695","41","bone hello","hanaA","2"
"<h1>どちらの単語が聞こえましたか</h1>","517","1","iden_exp","hana","11","","hanaA","hanaA","hanaA11-detaU05","697","41","bone hello","hanaA","2"
"<h1>どちらの単語が聞こえましたか</h1>","588","0","iden_exp","hana","11","","hanaU","hanaU","hanaU11-detaA09","699","41","bone hello","hanaU","2"
"<h1>どちらの単語が聞こえましたか</h1>","534","0","iden_exp","hana","7","","hanaU","hanaU","hanaU07-detaU01","701","41","bone hello","hanaU","2"
"<h1>どちらの単語が聞こえましたか</h1>","743","1","iden_exp","hana","11","","hanaA","hanaU","hanaA11-detaA05","703","42","bone hello","hanaA","2"
"<h1>どちらの単語が聞こえましたか</h1>","831","1","iden_exp","hana","5","","hanaU","hanaU","hanaU05-detaU01","705","42","bone hello","hanaU","2"
"<h1>どちらの単語が聞こえましたか</h1>","552","1","iden_exp","hana","11","","hanaU","hanaU","hanaU11-detaA05","707","42","bone hello","hanaU","2"
"<h1>どちらの単語が聞こえましたか</h1>","670","1","iden_exp","hana","5","","hanaA","hanaA","hanaA05-detaU06","709","42","bone hello","hanaA","2"
"<h1>どちらの単語が聞こえましたか</h1>","574","1","iden_exp","hana","9","","hanaA","hanaA","hanaA09-detaU03","711","42","bone hello","hanaA","2"
"<h1>どちらの単語が聞こえましたか</h1>","867","0","iden_exp","hana","1","","hanaA","hanaU","hanaA01-detaA09","713","42","bone hello","hanaU","2"
"<h1>どちらの単語が聞こえましたか</h1>","594","0","iden_exp","hana","9","","hanaA","hanaA","hanaA09-detaU11","715","42","bone hello","hanaA","2"
"<h1>どちらの単語が聞こえましたか</h1>","707","1","iden_exp","hana","5","","hanaU","hanaU","hanaU05-detaA03","717","42","bone hello","hanaU","2"
"<h1>どちらの単語が聞こえましたか</h1>","1511","0","iden_exp","hana","3","","hanaU","hanaU","hanaU03-detaA06","719","42","bone hello","hanaU","2"
"<h1>どちらの単語が聞こえましたか</h1>","995","0","iden_exp","hana","3","","hanaA","hanaU","hanaA03-detaA01","721","42","bone hello","hanaU","2"
"<h1>どちらの単語が聞こえましたか</h1>","514","1","iden_exp","hana","1","","hanaA","hanaU","hanaA01-detaA11","723","42","bone hello","hanaA","2"
"<h1>どちらの単語が聞こえましたか</h1>","745","0","iden_exp","hana","9","","hanaA","hanaA","hanaA09-detaU09","725","42","bone hello","hanaA","2"
"<h1>どちらの単語が聞こえましたか</h1>","499","0","iden_exp","hana","5","","hanaA","hanaU","hanaA05-detaA01","727","42","bone hello","hanaU","2"
"<h1>どちらの単語が聞こえましたか</h1>","858","1","iden_exp","hana","5","","hanaU","hanaU","hanaU05-detaA06","729","43","bone hello","hanaU","2"
"<h1>どちらの単語が聞こえましたか</h1>","612","0","iden_exp","hana","9","","hanaA","hanaA","hanaA09-detaU06","731","43","bone hello","hanaA","2"
"<h1>どちらの単語が聞こえましたか</h1>","479","0","iden_exp","hana","11","","hanaA","hanaU","hanaA11-detaA09","733","43","bone hello","hanaU","2"
"<h1>どちらの単語が聞こえましたか</h1>","739","0","iden_exp","hana","11","","hanaU","hanaU","hanaU11-detaU11","735","43","bone hello","hanaU","2"
"<h1>どちらの単語が聞こえましたか</h1>","592","0","iden_exp","hana","11","","hanaA","hanaU","hanaA11-detaA11","737","43","bone hello","hanaU","2"
"<h1>どちらの単語が聞こえましたか</h1>","498","0","iden_exp","hana","1","","hanaU","hanaU","hanaU01-detaA01","739","43","bone hello","hanaU","2"
"<h1>どちらの単語が聞こえましたか</h1>","552","0","iden_exp","hana","7","","hanaU","hanaU","hanaU07-detaA05","741","43","bone hello","hanaU","2"
"<h1>どちらの単語が聞こえましたか</h1>","493","0","iden_exp","hana","3","","hanaU","hanaU","hanaU03-detaA11","743","43","bone hello","hanaU","2"
"<h1>どちらの単語が聞こえましたか</h1>","531","0","iden_exp","hana","1","","hanaA","hanaA","hanaA01-detaU01","745","43","bone hello","hanaA","2"
"<h1>どちらの単語が聞こえましたか</h1>","480","0","iden_exp","hana","6","","hanaA","hanaA","hanaA06-detaU01","747","43","bone hello","hanaA","2"
"<h1>どちらの単語が聞こえましたか</h1>","754","1","iden_exp","hana","3","","hanaU","hanaU","hanaU03-detaA07","749","43","bone hello","hanaU","2"
"<h1>どちらの単語が聞こえましたか</h1>","808","0","iden_exp","hana","6","","hanaA","hanaU","hanaA06-detaA05","751","43","bone hello","hanaU","2"
"<h1>どちらの単語が聞こえましたか</h1>","630","0","iden_exp","hana","6","","hanaA","hanaU","hanaA06-detaA07","753","43","bone hello","hanaU","2"
"<h1>どちらの単語が聞こえましたか</h1>","699","1","iden_exp","hana","5","","hanaA","hanaA","hanaA05-detaU11","755","43","bone hello","hanaA","2"
"<h1>どちらの単語が聞こえましたか</h1>","689","1","iden_exp","hana","7","","hanaU","hanaU","hanaU07-detaA07","757","44","bone hello","hanaU","2"
"<h1>どちらの単語が聞こえましたか</h1>","510","1","iden_exp","hana","9","","hanaU","hanaU","hanaU09-detaU06","759","44","bone hello","hanaU","2"
"<h1>どちらの単語が聞こえましたか</h1>","552","0","iden_exp","hana","9","","hanaU","hanaU","hanaU09-detaA05","761","44","bone hello","hanaU","2"
"<h1>どちらの単語が聞こえましたか</h1>","709","0","iden_exp","hana","5","","hanaA","hanaA","hanaA05-detaU01","763","44","bone hello","hanaA","2"
"<h1>どちらの単語が聞こえましたか</h1>","623","1","iden_exp","hana","3","","hanaU","hanaU","hanaU03-detaU11","765","44","bone hello","hanaU","2"
"<h1>どちらの単語が聞こえましたか</h1>","465","1","iden_exp","hana","11","","hanaA","hanaA","hanaA11-detaU11","767","44","bone hello","hanaA","2"
"<h1>どちらの単語が聞こえましたか</h1>","876","0","iden_exp","hana","6","","hanaU","hanaU","hanaU06-detaA01","769","44","bone hello","hanaU","2"
"<h1>どちらの単語が聞こえましたか</h1>","709","1","iden_exp","hana","11","","hanaU","hanaU","hanaU11-detaU06","771","44","bone hello","hanaU","2"
"<h1>どちらの単語が聞こえましたか</h1>","503","0","iden_exp","hana","1","","hanaA","hanaU","hanaA01-detaA03","773","44","bone hello","hanaU","2"
"<h1>どちらの単語が聞こえましたか</h1>","587","0","iden_exp","hana","7","","hanaU","hanaU","hanaU07-detaU09","775","44","bone hello","hanaU","2"
"<h1>どちらの単語が聞こえましたか</h1>","553","0","iden_exp","hana","5","","hanaA","hanaU","hanaA05-detaA07","777","44","bone hello","hanaU","2"
"<h1>どちらの単語が聞こえましたか</h1>","778","0","iden_exp","hana","7","","hanaU","hanaU","hanaU07-detaA06","779","44","bone hello","hanaU","2"
"<h1>どちらの単語が聞こえましたか</h1>","455","0","iden_exp","hana","3","","hanaA","hanaA","hanaA03-detaU07","781","44","bone hello","hanaA","2"
"<h1>どちらの単語が聞こえましたか</h1>","1288","1","iden_exp","hana","11","","hanaU","hanaU","hanaU11-detaU09","783","45","bone hello","hanaU","2"
"<h1>どちらの単語が聞こえましたか</h1>","591","0","iden_exp","hana","7","","hanaA","hanaA","hanaA07-detaU11","785","45","bone hello","hanaA","2"
"<h1>どちらの単語が聞こえましたか</h1>","578","0","iden_exp","hana","1","","hanaU","hanaU","hanaU01-detaU09","787","45","bone hello","hanaU","2"
"<h1>どちらの単語が聞こえましたか</h1>","486","0","iden_exp","hana","1","","hanaU","hanaU","hanaU01-detaU05","789","45","bone hello","hanaU","2"
"<h1>どちらの単語が聞こえましたか</h1>","693","1","iden_exp","hana","1","","hanaA","hanaU","hanaA01-detaA07","791","45","bone hello","hanaA","2"
"<h1>どちらの単語が聞こえましたか</h1>","522","1","iden_exp","hana","1","","hanaA","hanaA","hanaA01-detaU09","793","45","bone hello","hanaA","2"
"<h1>どちらの単語が聞こえましたか</h1>","581","1","iden_exp","hana","6","","hanaA","hanaA","hanaA06-detaU05","795","45","bone hello","hanaA","2"
"<h1>どちらの単語が聞こえましたか</h1>","568","0","iden_exp","hana","7","","hanaA","hanaA","hanaA07-detaU07","797","45","bone hello","hanaA","2"
"<h1>どちらの単語が聞こえましたか</h1>","429","1","iden_exp","hana","9","","hanaU","hanaU","hanaU09-detaU03","799","45","bone hello","hanaU","2"
"<h1>どちらの単語が聞こえましたか</h1>","494","1","iden_exp","hana","5","","hanaU","hanaU","hanaU05-detaA11","801","45","bone hello","hanaU","2"
"<h1>どちらの単語が聞こえましたか</h1>","631","1","iden_exp","hana","6","","hanaA","hanaA","hanaA06-detaU07","803","45","bone hello","hanaA","2"
"<h1>どちらの単語が聞こえましたか</h1>","741","0","iden_exp","hana","6","","hanaU","hanaU","hanaU06-detaA06","805","45","bone hello","hanaU","2"
