"stimulus","rt","response","phase","word","carrier","block","wordAccent","wordAccentStep","carrierAccent","carrierAccentStep","option_0","option_1","sound","trial_index","time_elapsed","participantID","answer"
"<h1>どちらの単語が聞こえましたか</h1>","548","1","practice","hana","deta","2","A","1","A","","hanaA","hanaU","hanaA01-detaA01","4","3","satellites due massage bank feet slipped","hanaU"
"<h1>どちらの単語が聞こえましたか</h1>","657","1","practice","hana","deta","2","A","11","A","","hanaA","hanaU","hanaA11-detaA11","6","4","satellites due massage bank feet slipped","hanaU"
"<h1>どちらの単語が聞こえましたか</h1>","609","0","practice","hana","deta","2","U","1","U","","hanaA","hanaU","hanaU01-detaU01","8","4","satellites due massage bank feet slipped","hanaA"
"<h1>どちらの単語が聞こえましたか</h1>","741","0","practice","hana","deta","2","U","11","U","","hanaA","hanaU","hanaU11-detaU11","10","4","satellites due massage bank feet slipped","hanaA"
"<h1>どちらの単語が聞こえましたか</h1>","593","1","practice","hana","deta","2","A","1","U","","hanaA","hanaU","hanaA01-detaU01","13","4","satellites due massage bank feet slipped","hanaA"
"<h1>どちらの単語が聞こえましたか</h1>","580","1","practice","hana","deta","2","A","11","U","","hanaA","hanaU","hanaA11-detaU11","15","4","satellites due massage bank feet slipped","hanaA"
"<h1>どちらの単語が聞こえましたか</h1>","564","0","practice","hana","deta","2","U","1","A","","hanaA","hanaU","hanaU01-detaA01","17","4","satellites due massage bank feet slipped","hanaU"
"<h1>どちらの単語が聞こえましたか</h1>","579","0","practice","hana","deta","2","U","11","A","","hanaA","hanaU","hanaU11-detaA11","19","4","satellites due massage bank feet slipped","hanaU"
"<h1>どちらの単語が聞こえましたか</h1>","623","1","practice","","","2","","","","","","","","21","4","satellites due massage bank feet slipped",""
"<h1>どちらの単語が聞こえましたか</h1>","422","0","iden_exp","hana","deta","1","U","7","U","7","hanaU","hanaU","hanaU07-detaU07","24","5","satellites due massage bank feet slipped","hanaU"
"<h1>どちらの単語が聞こえましたか</h1>","689","1","iden_exp","hana","deta","1","U","3","U","3","hanaU","hanaU","hanaU03-detaU03","26","5","satellites due massage bank feet slipped","hanaU"
"<h1>どちらの単語が聞こえましたか</h1>","450","1","iden_exp","hana","deta","1","U","11","U","7","hanaU","hanaU","hanaU11-detaU07","28","5","satellites due massage bank feet slipped","hanaU"
"<h1>どちらの単語が聞こえましたか</h1>","519","1","iden_exp","hana","deta","1","U","11","U","11","hanaU","hanaU","hanaU11-detaU11","30","5","satellites due massage bank feet slipped","hanaU"
"<h1>どちらの単語が聞こえましたか</h1>","621","0","iden_exp","hana","deta","1","A","6","A","1","hanaA","hanaU","hanaA06-detaA01","32","5","satellites due massage bank feet slipped","hanaA"
"<h1>どちらの単語が聞こえましたか</h1>","705","0","iden_exp","hana","deta","1","A","7","A","9","hanaA","hanaU","hanaA07-detaA09","34","5","satellites due massage bank feet slipped","hanaA"
"<h1>どちらの単語が聞こえましたか</h1>","552","0","iden_exp","hana","deta","1","A","9","A","7","hanaA","hanaU","hanaA09-detaA07","36","5","satellites due massage bank feet slipped","hanaA"
"<h1>どちらの単語が聞こえましたか</h1>","625","1","iden_exp","hana","deta","1","U","3","U","11","hanaU","hanaU","hanaU03-detaU11","38","5","satellites due massage bank feet slipped","hanaU"
"<h1>どちらの単語が聞こえましたか</h1>","842","0","iden_exp","hana","deta","1","U","5","U","11","hanaU","hanaU","hanaU05-detaU11","40","5","satellites due massage bank feet slipped","hanaU"
"<h1>どちらの単語が聞こえましたか</h1>","1078","0","iden_exp","hana","deta","1","U","7","U","9","hanaU","hanaU","hanaU07-detaU09","42","5","satellites due massage bank feet slipped","hanaU"
"<h1>どちらの単語が聞こえましたか</h1>","540","0","iden_exp","hana","deta","1","U","5","A","11","hanaU","hanaU","hanaU05-detaA11","44","5","satellites due massage bank feet slipped","hanaU"
"<h1>どちらの単語が聞こえましたか</h1>","907","0","iden_exp","hana","deta","1","U","6","A","6","hanaU","hanaU","hanaU06-detaA06","46","6","satellites due massage bank feet slipped","hanaU"
"<h1>どちらの単語が聞こえましたか</h1>","640","1","iden_exp","hana","deta","1","U","11","A","11","hanaU","hanaU","hanaU11-detaA11","48","6","satellites due massage bank feet slipped","hanaU"
"<h1>どちらの単語が聞こえましたか</h1>","569","1","iden_exp","hana","deta","1","A","1","U","1","hanaA","hanaA","hanaA01-detaU01","50","6","satellites due massage bank feet slipped","hanaA"
"<h1>どちらの単語が聞こえましたか</h1>","534","1","iden_exp","hana","deta","1","U","7","A","5","hanaU","hanaU","hanaU07-detaA05","52","6","satellites due massage bank feet slipped","hanaU"
"<h1>どちらの単語が聞こえましたか</h1>","543","1","iden_exp","hana","deta","1","A","5","U","6","hanaA","hanaA","hanaA05-detaU06","54","6","satellites due massage bank feet slipped","hanaA"
"<h1>どちらの単語が聞こえましたか</h1>","600","1","iden_exp","hana","deta","1","U","6","U","5","hanaU","hanaU","hanaU06-detaU05","56","6","satellites due massage bank feet slipped","hanaU"
"<h1>どちらの単語が聞こえましたか</h1>","528","1","iden_exp","hana","deta","1","A","3","A","7","hanaA","hanaU","hanaA03-detaA07","58","6","satellites due massage bank feet slipped","hanaU"
"<h1>どちらの単語が聞こえましたか</h1>","513","1","iden_exp","hana","deta","1","U","7","U","5","hanaU","hanaU","hanaU07-detaU05","60","6","satellites due massage bank feet slipped","hanaU"
"<h1>どちらの単語が聞こえましたか</h1>","537","1","iden_exp","hana","deta","1","U","11","A","9","hanaU","hanaU","hanaU11-detaA09","62","6","satellites due massage bank feet slipped","hanaU"
"<h1>どちらの単語が聞こえましたか</h1>","560","1","iden_exp","hana","deta","1","A","9","U","5","hanaA","hanaA","hanaA09-detaU05","64","6","satellites due massage bank feet slipped","hanaA"
"<h1>どちらの単語が聞こえましたか</h1>","1396","1","iden_exp","hana","deta","1","U","3","U","7","hanaU","hanaU","hanaU03-detaU07","66","6","satellites due massage bank feet slipped","hanaU"
"<h1>どちらの単語が聞こえましたか</h1>","596","0","iden_exp","hana","deta","1","A","6","U","5","hanaA","hanaA","hanaA06-detaU05","68","7","satellites due massage bank feet slipped","hanaA"
"<h1>どちらの単語が聞こえましたか</h1>","1090","1","iden_exp","hana","deta","1","A","9","U","9","hanaA","hanaA","hanaA09-detaU09","70","7","satellites due massage bank feet slipped","hanaA"
"<h1>どちらの単語が聞こえましたか</h1>","484","1","iden_exp","hana","deta","1","A","5","U","7","hanaA","hanaA","hanaA05-detaU07","72","8","satellites due massage bank feet slipped","hanaA"
"<h1>どちらの単語が聞こえましたか</h1>","744","1","iden_exp","hana","deta","1","U","11","U","3","hanaU","hanaU","hanaU11-detaU03","74","8","satellites due massage bank feet slipped","hanaU"
"<h1>どちらの単語が聞こえましたか</h1>","503","1","iden_exp","hana","deta","1","U","11","A","5","hanaU","hanaU","hanaU11-detaA05","76","8","satellites due massage bank feet slipped","hanaU"
"<h1>どちらの単語が聞こえましたか</h1>","578","0","iden_exp","hana","deta","1","U","7","U","11","hanaU","hanaU","hanaU07-detaU11","78","8","satellites due massage bank feet slipped","hanaU"
"<h1>どちらの単語が聞こえましたか</h1>","707","0","iden_exp","hana","deta","1","A","7","A","1","hanaA","hanaU","hanaA07-detaA01","80","8","satellites due massage bank feet slipped","hanaA"
"<h1>どちらの単語が聞こえましたか</h1>","579","0","iden_exp","hana","deta","1","U","7","A","6","hanaU","hanaU","hanaU07-detaA06","82","8","satellites due massage bank feet slipped","hanaU"
"<h1>どちらの単語が聞こえましたか</h1>","574","1","iden_exp","hana","deta","1","U","7","A","1","hanaU","hanaU","hanaU07-detaA01","84","8","satellites due massage bank feet slipped","hanaU"
"<h1>どちらの単語が聞こえましたか</h1>","669","1","iden_exp","hana","deta","1","A","3","U","7","hanaA","hanaA","hanaA03-detaU07","86","8","satellites due massage bank feet slipped","hanaA"
"<h1>どちらの単語が聞こえましたか</h1>","721","0","iden_exp","hana","deta","1","A","3","U","6","hanaA","hanaA","hanaA03-detaU06","88","8","satellites due massage bank feet slipped","hanaA"
"<h1>どちらの単語が聞こえましたか</h1>","618","0","iden_exp","hana","deta","1","U","3","A","5","hanaU","hanaU","hanaU03-detaA05","90","8","satellites due massage bank feet slipped","hanaU"
"<h1>どちらの単語が聞こえましたか</h1>","459","1","iden_exp","hana","deta","1","A","3","A","11","hanaA","hanaU","hanaA03-detaA11","92","8","satellites due massage bank feet slipped","hanaU"
"<h1>どちらの単語が聞こえましたか</h1>","510","0","iden_exp","hana","deta","1","U","1","U","5","hanaU","hanaU","hanaU01-detaU05","94","8","satellites due massage bank feet slipped","hanaU"
"<h1>どちらの単語が聞こえましたか</h1>","631","1","iden_exp","hana","deta","1","U","9","U","11","hanaU","hanaU","hanaU09-detaU11","96","8","satellites due massage bank feet slipped","hanaU"
"<h1>どちらの単語が聞こえましたか</h1>","760","0","iden_exp","hana","deta","1","U","3","U","9","hanaU","hanaU","hanaU03-detaU09","98","8","satellites due massage bank feet slipped","hanaU"
"<h1>どちらの単語が聞こえましたか</h1>","552","0","iden_exp","hana","deta","1","A","6","A","3","hanaA","hanaU","hanaA06-detaA03","100","9","satellites due massage bank feet slipped","hanaA"
"<h1>どちらの単語が聞こえましたか</h1>","742","1","iden_exp","hana","deta","1","U","11","U","6","hanaU","hanaU","hanaU11-detaU06","102","9","satellites due massage bank feet slipped","hanaU"
"<h1>どちらの単語が聞こえましたか</h1>","609","0","iden_exp","hana","deta","1","A","9","U","1","hanaA","hanaA","hanaA09-detaU01","104","9","satellites due massage bank feet slipped","hanaA"
"<h1>どちらの単語が聞こえましたか</h1>","600","1","iden_exp","hana","deta","1","U","1","U","6","hanaU","hanaU","hanaU01-detaU06","106","9","satellites due massage bank feet slipped","hanaU"
"<h1>どちらの単語が聞こえましたか</h1>","543","1","iden_exp","hana","deta","1","A","5","U","1","hanaA","hanaA","hanaA05-detaU01","108","9","satellites due massage bank feet slipped","hanaA"
"<h1>どちらの単語が聞こえましたか</h1>","539","0","iden_exp","hana","deta","1","U","5","A","5","hanaU","hanaU","hanaU05-detaA05","110","9","satellites due massage bank feet slipped","hanaU"
"<h1>どちらの単語が聞こえましたか</h1>","498","1","iden_exp","hana","deta","1","U","1","A","11","hanaU","hanaU","hanaU01-detaA11","112","9","satellites due massage bank feet slipped","hanaU"
"<h1>どちらの単語が聞こえましたか</h1>","688","0","iden_exp","hana","deta","1","U","9","U","9","hanaU","hanaU","hanaU09-detaU09","114","9","satellites due massage bank feet slipped","hanaU"
"<h1>どちらの単語が聞こえましたか</h1>","569","0","iden_exp","hana","deta","1","U","7","A","7","hanaU","hanaU","hanaU07-detaA07","116","9","satellites due massage bank feet slipped","hanaU"
"<h1>どちらの単語が聞こえましたか</h1>","575","0","iden_exp","hana","deta","1","A","3","U","5","hanaA","hanaA","hanaA03-detaU05","118","9","satellites due massage bank feet slipped","hanaA"
"<h1>どちらの単語が聞こえましたか</h1>","698","0","iden_exp","hana","deta","1","U","9","A","11","hanaU","hanaU","hanaU09-detaA11","120","10","satellites due massage bank feet slipped","hanaU"
"<h1>どちらの単語が聞こえましたか</h1>","439","0","iden_exp","hana","deta","1","U","3","U","5","hanaU","hanaU","hanaU03-detaU05","122","10","satellites due massage bank feet slipped","hanaU"
"<h1>どちらの単語が聞こえましたか</h1>","821","1","iden_exp","hana","deta","1","A","9","A","3","hanaA","hanaU","hanaA09-detaA03","124","10","satellites due massage bank feet slipped","hanaU"
"<h1>どちらの単語が聞こえましたか</h1>","580","0","iden_exp","hana","deta","1","A","6","U","7","hanaA","hanaA","hanaA06-detaU07","126","11","satellites due massage bank feet slipped","hanaA"
"<h1>どちらの単語が聞こえましたか</h1>","807","0","iden_exp","hana","deta","1","A","6","A","7","hanaA","hanaU","hanaA06-detaA07","128","11","satellites due massage bank feet slipped","hanaA"
"<h1>どちらの単語が聞こえましたか</h1>","661","0","iden_exp","hana","deta","1","A","7","U","3","hanaA","hanaA","hanaA07-detaU03","130","11","satellites due massage bank feet slipped","hanaA"
"<h1>どちらの単語が聞こえましたか</h1>","613","0","iden_exp","hana","deta","1","A","9","A","1","hanaA","hanaU","hanaA09-detaA01","132","12","satellites due massage bank feet slipped","hanaA"
"<h1>どちらの単語が聞こえましたか</h1>","631","0","iden_exp","hana","deta","1","U","9","U","1","hanaU","hanaU","hanaU09-detaU01","134","12","satellites due massage bank feet slipped","hanaU"
"<h1>どちらの単語が聞こえましたか</h1>","838","1","iden_exp","hana","deta","1","U","1","U","9","hanaU","hanaU","hanaU01-detaU09","136","12","satellites due massage bank feet slipped","hanaU"
"<h1>どちらの単語が聞こえましたか</h1>","692","0","iden_exp","hana","deta","1","U","11","U","9","hanaU","hanaU","hanaU11-detaU09","138","12","satellites due massage bank feet slipped","hanaU"
"<h1>どちらの単語が聞こえましたか</h1>","616","1","iden_exp","hana","deta","1","A","11","U","9","hanaA","hanaA","hanaA11-detaU09","140","12","satellites due massage bank feet slipped","hanaA"
"<h1>どちらの単語が聞こえましたか</h1>","567","1","iden_exp","hana","deta","1","A","7","U","11","hanaA","hanaA","hanaA07-detaU11","142","13","satellites due massage bank feet slipped","hanaA"
"<h1>どちらの単語が聞こえましたか</h1>","530","0","iden_exp","hana","deta","1","A","5","U","5","hanaA","hanaA","hanaA05-detaU05","144","13","satellites due massage bank feet slipped","hanaA"
"<h1>どちらの単語が聞こえましたか</h1>","647","0","iden_exp","hana","deta","1","U","7","U","3","hanaU","hanaU","hanaU07-detaU03","146","13","satellites due massage bank feet slipped","hanaU"
"<h1>どちらの単語が聞こえましたか</h1>","612","1","iden_exp","hana","deta","1","A","5","A","3","hanaA","hanaU","hanaA05-detaA03","148","13","satellites due massage bank feet slipped","hanaU"
"<h1>どちらの単語が聞こえましたか</h1>","523","0","iden_exp","hana","deta","1","U","3","A","11","hanaU","hanaU","hanaU03-detaA11","150","13","satellites due massage bank feet slipped","hanaU"
"<h1>どちらの単語が聞こえましたか</h1>","507","0","iden_exp","hana","deta","1","A","6","U","3","hanaA","hanaA","hanaA06-detaU03","152","13","satellites due massage bank feet slipped","hanaA"
"<h1>どちらの単語が聞こえましたか</h1>","672","1","iden_exp","hana","deta","1","U","5","U","3","hanaU","hanaU","hanaU05-detaU03","154","13","satellites due massage bank feet slipped","hanaU"
"<h1>どちらの単語が聞こえましたか</h1>","671","1","iden_exp","hana","deta","1","U","3","A","1","hanaU","hanaU","hanaU03-detaA01","156","13","satellites due massage bank feet slipped","hanaU"
"<h1>どちらの単語が聞こえましたか</h1>","650","1","iden_exp","hana","deta","1","A","6","U","6","hanaA","hanaA","hanaA06-detaU06","158","13","satellites due massage bank feet slipped","hanaA"
"<h1>どちらの単語が聞こえましたか</h1>","477","0","iden_exp","hana","deta","1","A","1","A","1","hanaA","hanaU","hanaA01-detaA01","160","13","satellites due massage bank feet slipped","hanaA"
"<h1>どちらの単語が聞こえましたか</h1>","573","1","iden_exp","hana","deta","1","U","3","U","6","hanaU","hanaU","hanaU03-detaU06","162","14","satellites due massage bank feet slipped","hanaU"
"<h1>どちらの単語が聞こえましたか</h1>","690","1","iden_exp","hana","deta","1","A","3","U","3","hanaA","hanaA","hanaA03-detaU03","164","14","satellites due massage bank feet slipped","hanaA"
"<h1>どちらの単語が聞こえましたか</h1>","606","1","iden_exp","hana","deta","1","A","1","A","6","hanaA","hanaU","hanaA01-detaA06","166","14","satellites due massage bank feet slipped","hanaU"
"<h1>どちらの単語が聞こえましたか</h1>","569","1","iden_exp","hana","deta","1","U","7","A","9","hanaU","hanaU","hanaU07-detaA09","168","14","satellites due massage bank feet slipped","hanaU"
"<h1>どちらの単語が聞こえましたか</h1>","530","1","iden_exp","hana","deta","1","U","3","A","7","hanaU","hanaU","hanaU03-detaA07","170","14","satellites due massage bank feet slipped","hanaU"
"<h1>どちらの単語が聞こえましたか</h1>","531","0","iden_exp","hana","deta","1","U","11","A","7","hanaU","hanaU","hanaU11-detaA07","172","14","satellites due massage bank feet slipped","hanaU"
"<h1>どちらの単語が聞こえましたか</h1>","961","0","iden_exp","hana","deta","1","U","9","U","3","hanaU","hanaU","hanaU09-detaU03","174","14","satellites due massage bank feet slipped","hanaU"
"<h1>どちらの単語が聞こえましたか</h1>","575","1","iden_exp","hana","deta","1","U","6","U","11","hanaU","hanaU","hanaU06-detaU11","176","14","satellites due massage bank feet slipped","hanaU"
"<h1>どちらの単語が聞こえましたか</h1>","630","0","iden_exp","hana","deta","1","U","1","A","5","hanaU","hanaU","hanaU01-detaA05","178","14","satellites due massage bank feet slipped","hanaU"
"<h1>どちらの単語が聞こえましたか</h1>","707","0","iden_exp","hana","deta","1","A","7","U","5","hanaA","hanaA","hanaA07-detaU05","180","15","satellites due massage bank feet slipped","hanaA"
"<h1>どちらの単語が聞こえましたか</h1>","457","0","iden_exp","hana","deta","1","U","6","A","5","hanaU","hanaU","hanaU06-detaA05","182","15","satellites due massage bank feet slipped","hanaU"
"<h1>どちらの単語が聞こえましたか</h1>","773","0","iden_exp","hana","deta","1","A","11","U","3","hanaA","hanaA","hanaA11-detaU03","184","15","satellites due massage bank feet slipped","hanaA"
"<h1>どちらの単語が聞こえましたか</h1>","1057","0","iden_exp","hana","deta","1","U","7","A","11","hanaU","hanaU","hanaU07-detaA11","186","15","satellites due massage bank feet slipped","hanaU"
"<h1>どちらの単語が聞こえましたか</h1>","534","0","iden_exp","hana","deta","1","U","5","U","6","hanaU","hanaU","hanaU05-detaU06","188","16","satellites due massage bank feet slipped","hanaU"
"<h1>どちらの単語が聞こえましたか</h1>","540","1","iden_exp","hana","deta","1","U","11","A","6","hanaU","hanaU","hanaU11-detaA06","190","16","satellites due massage bank feet slipped","hanaU"
"<h1>どちらの単語が聞こえましたか</h1>","916","1","iden_exp","hana","deta","1","A","5","U","3","hanaA","hanaA","hanaA05-detaU03","192","16","satellites due massage bank feet slipped","hanaA"
"<h1>どちらの単語が聞こえましたか</h1>","658","1","iden_exp","hana","deta","1","U","5","A","7","hanaU","hanaU","hanaU05-detaA07","194","17","satellites due massage bank feet slipped","hanaU"
"<h1>どちらの単語が聞こえましたか</h1>","815","1","iden_exp","hana","deta","1","A","9","U","3","hanaA","hanaA","hanaA09-detaU03","196","17","satellites due massage bank feet slipped","hanaA"
"<h1>どちらの単語が聞こえましたか</h1>","513","1","iden_exp","hana","deta","1","A","11","U","1","hanaA","hanaA","hanaA11-detaU01","198","17","satellites due massage bank feet slipped","hanaA"
"<h1>どちらの単語が聞こえましたか</h1>","674","1","iden_exp","hana","deta","1","U","3","A","3","hanaU","hanaU","hanaU03-detaA03","200","18","satellites due massage bank feet slipped","hanaU"
"<h1>どちらの単語が聞こえましたか</h1>","589","0","iden_exp","hana","deta","1","A","7","U","1","hanaA","hanaA","hanaA07-detaU01","202","18","satellites due massage bank feet slipped","hanaA"
"<h1>どちらの単語が聞こえましたか</h1>","551","0","iden_exp","hana","deta","1","A","5","A","7","hanaA","hanaU","hanaA05-detaA07","204","18","satellites due massage bank feet slipped","hanaA"
"<h1>どちらの単語が聞こえましたか</h1>","905","1","iden_exp","hana","deta","1","A","7","U","9","hanaA","hanaA","hanaA07-detaU09","206","19","satellites due massage bank feet slipped","hanaA"
"<h1>どちらの単語が聞こえましたか</h1>","477","1","iden_exp","hana","deta","1","A","11","A","6","hanaA","hanaU","hanaA11-detaA06","208","19","satellites due massage bank feet slipped","hanaU"
"<h1>どちらの単語が聞こえましたか</h1>","590","1","iden_exp","hana","deta","1","A","3","A","9","hanaA","hanaU","hanaA03-detaA09","210","19","satellites due massage bank feet slipped","hanaU"
"<h1>どちらの単語が聞こえましたか</h1>","538","1","iden_exp","hana","deta","1","U","11","A","3","hanaU","hanaU","hanaU11-detaA03","212","19","satellites due massage bank feet slipped","hanaU"
"<h1>どちらの単語が聞こえましたか</h1>","571","1","iden_exp","hana","deta","1","U","1","A","3","hanaU","hanaU","hanaU01-detaA03","214","19","satellites due massage bank feet slipped","hanaU"
"<h1>どちらの単語が聞こえましたか</h1>","894","1","iden_exp","hana","deta","1","U","9","A","9","hanaU","hanaU","hanaU09-detaA09","216","19","satellites due massage bank feet slipped","hanaU"
"<h1>どちらの単語が聞こえましたか</h1>","529","1","iden_exp","hana","deta","1","A","9","A","9","hanaA","hanaU","hanaA09-detaA09","218","19","satellites due massage bank feet slipped","hanaU"
"<h1>どちらの単語が聞こえましたか</h1>","583","0","iden_exp","hana","deta","1","A","3","A","5","hanaA","hanaU","hanaA03-detaA05","220","20","satellites due massage bank feet slipped","hanaA"
"<h1>どちらの単語が聞こえましたか</h1>","591","0","iden_exp","hana","deta","1","U","5","A","9","hanaU","hanaU","hanaU05-detaA09","222","20","satellites due massage bank feet slipped","hanaU"
"<h1>どちらの単語が聞こえましたか</h1>","556","0","iden_exp","hana","deta","1","A","7","A","6","hanaA","hanaU","hanaA07-detaA06","224","20","satellites due massage bank feet slipped","hanaA"
"<h1>どちらの単語が聞こえましたか</h1>","612","0","iden_exp","hana","deta","1","A","3","A","1","hanaA","hanaU","hanaA03-detaA01","226","21","satellites due massage bank feet slipped","hanaA"
"<h1>どちらの単語が聞こえましたか</h1>","655","1","iden_exp","hana","deta","1","U","5","U","9","hanaU","hanaU","hanaU05-detaU09","228","21","satellites due massage bank feet slipped","hanaU"
"<h1>どちらの単語が聞こえましたか</h1>","858","0","iden_exp","hana","deta","1","A","9","U","6","hanaA","hanaA","hanaA09-detaU06","230","21","satellites due massage bank feet slipped","hanaA"
"<h1>どちらの単語が聞こえましたか</h1>","626","0","iden_exp","hana","deta","1","A","11","A","11","hanaA","hanaU","hanaA11-detaA11","232","21","satellites due massage bank feet slipped","hanaA"
"<h1>どちらの単語が聞こえましたか</h1>","571","1","iden_exp","hana","deta","1","A","3","A","3","hanaA","hanaU","hanaA03-detaA03","234","21","satellites due massage bank feet slipped","hanaU"
"<h1>どちらの単語が聞こえましたか</h1>","719","1","iden_exp","hana","deta","1","U","3","A","6","hanaU","hanaU","hanaU03-detaA06","236","21","satellites due massage bank feet slipped","hanaU"
"<h1>どちらの単語が聞こえましたか</h1>","763","1","iden_exp","hana","deta","1","U","3","U","1","hanaU","hanaU","hanaU03-detaU01","238","22","satellites due massage bank feet slipped","hanaU"
"<h1>どちらの単語が聞こえましたか</h1>","584","0","iden_exp","hana","deta","1","U","1","U","7","hanaU","hanaU","hanaU01-detaU07","240","22","satellites due massage bank feet slipped","hanaU"
"<h1>どちらの単語が聞こえましたか</h1>","474","1","iden_exp","hana","deta","1","A","1","U","5","hanaA","hanaA","hanaA01-detaU05","242","22","satellites due massage bank feet slipped","hanaA"
"<h1>どちらの単語が聞こえましたか</h1>","648","1","iden_exp","hana","deta","1","A","7","A","5","hanaA","hanaU","hanaA07-detaA05","244","22","satellites due massage bank feet slipped","hanaU"
"<h1>どちらの単語が聞こえましたか</h1>","586","1","iden_exp","hana","deta","1","A","11","U","11","hanaA","hanaA","hanaA11-detaU11","246","22","satellites due massage bank feet slipped","hanaA"
"<h1>どちらの単語が聞こえましたか</h1>","874","0","iden_exp","hana","deta","1","U","6","U","6","hanaU","hanaU","hanaU06-detaU06","248","22","satellites due massage bank feet slipped","hanaU"
"<h1>どちらの単語が聞こえましたか</h1>","894","1","iden_exp","hana","deta","1","U","6","A","7","hanaU","hanaU","hanaU06-detaA07","250","23","satellites due massage bank feet slipped","hanaU"
"<h1>どちらの単語が聞こえましたか</h1>","702","0","iden_exp","hana","deta","1","U","9","A","5","hanaU","hanaU","hanaU09-detaA05","252","23","satellites due massage bank feet slipped","hanaU"
"<h1>どちらの単語が聞こえましたか</h1>","1044","1","iden_exp","hana","deta","1","U","1","U","3","hanaU","hanaU","hanaU01-detaU03","254","23","satellites due massage bank feet slipped","hanaU"
"<h1>どちらの単語が聞こえましたか</h1>","467","0","iden_exp","hana","deta","1","A","9","U","7","hanaA","hanaA","hanaA09-detaU07","256","23","satellites due massage bank feet slipped","hanaA"
"<h1>どちらの単語が聞こえましたか</h1>","514","1","iden_exp","","","1","","","","","","","","258","23","satellites due massage bank feet slipped",""
"<h1>どちらの単語が聞こえましたか</h1>","523","0","iden_exp","hana","deta","1","U","11","A","1","hanaU","hanaU","hanaU11-detaA01","260","24","satellites due massage bank feet slipped","hanaU"
"<h1>どちらの単語が聞こえましたか</h1>","660","1","iden_exp","hana","deta","1","A","6","A","11","hanaA","hanaU","hanaA06-detaA11","262","24","satellites due massage bank feet slipped","hanaU"
"<h1>どちらの単語が聞こえましたか</h1>","596","0","iden_exp","hana","deta","1","A","5","U","9","hanaA","hanaA","hanaA05-detaU09","264","25","satellites due massage bank feet slipped","hanaA"
"<h1>どちらの単語が聞こえましたか</h1>","829","0","iden_exp","hana","deta","1","A","9","A","11","hanaA","hanaU","hanaA09-detaA11","266","25","satellites due massage bank feet slipped","hanaA"
"<h1>どちらの単語が聞こえましたか</h1>","605","1","iden_exp","hana","deta","1","U","7","A","3","hanaU","hanaU","hanaU07-detaA03","268","26","satellites due massage bank feet slipped","hanaU"
"<h1>どちらの単語が聞こえましたか</h1>","630","1","iden_exp","hana","deta","1","A","6","U","11","hanaA","hanaA","hanaA06-detaU11","270","26","satellites due massage bank feet slipped","hanaA"
"<h1>どちらの単語が聞こえましたか</h1>","661","0","iden_exp","hana","deta","1","A","5","A","9","hanaA","hanaU","hanaA05-detaA09","272","26","satellites due massage bank feet slipped","hanaA"
"<h1>どちらの単語が聞こえましたか</h1>","527","1","iden_exp","hana","deta","1","A","6","U","1","hanaA","hanaA","hanaA06-detaU01","274","26","satellites due massage bank feet slipped","hanaA"
"<h1>どちらの単語が聞こえましたか</h1>","446","0","iden_exp","hana","deta","1","U","1","A","9","hanaU","hanaU","hanaU01-detaA09","276","26","satellites due massage bank feet slipped","hanaU"
"<h1>どちらの単語が聞こえましたか</h1>","550","1","iden_exp","hana","deta","1","A","5","A","1","hanaA","hanaU","hanaA05-detaA01","278","26","satellites due massage bank feet slipped","hanaU"
"<h1>どちらの単語が聞こえましたか</h1>","1336","1","iden_exp","hana","deta","1","A","9","U","11","hanaA","hanaA","hanaA09-detaU11","280","27","satellites due massage bank feet slipped","hanaA"
"<h1>どちらの単語が聞こえましたか</h1>","440","0","iden_exp","hana","deta","1","U","1","U","11","hanaU","hanaU","hanaU01-detaU11","282","27","satellites due massage bank feet slipped","hanaU"
"<h1>どちらの単語が聞こえましたか</h1>","634","1","iden_exp","hana","deta","1","U","7","U","1","hanaU","hanaU","hanaU07-detaU01","284","27","satellites due massage bank feet slipped","hanaU"
"<h1>どちらの単語が聞こえましたか</h1>","579","0","iden_exp","hana","deta","1","A","1","A","9","hanaA","hanaU","hanaA01-detaA09","286","27","satellites due massage bank feet slipped","hanaA"
"<h1>どちらの単語が聞こえましたか</h1>","595","0","iden_exp","hana","deta","1","A","3","A","6","hanaA","hanaU","hanaA03-detaA06","288","27","satellites due massage bank feet slipped","hanaA"
"<h1>どちらの単語が聞こえましたか</h1>","541","1","iden_exp","hana","deta","1","A","11","A","7","hanaA","hanaU","hanaA11-detaA07","290","27","satellites due massage bank feet slipped","hanaU"
"<h1>どちらの単語が聞こえましたか</h1>","726","0","iden_exp","hana","deta","1","U","5","A","1","hanaU","hanaU","hanaU05-detaA01","292","27","satellites due massage bank feet slipped","hanaU"
"<h1>どちらの単語が聞こえましたか</h1>","578","1","iden_exp","hana","deta","1","A","7","A","11","hanaA","hanaU","hanaA07-detaA11","294","28","satellites due massage bank feet slipped","hanaU"
"<h1>どちらの単語が聞こえましたか</h1>","616","0","iden_exp","hana","deta","1","A","6","A","5","hanaA","hanaU","hanaA06-detaA05","296","28","satellites due massage bank feet slipped","hanaA"
"<h1>どちらの単語が聞こえましたか</h1>","413","1","iden_exp","hana","deta","1","U","6","U","9","hanaU","hanaU","hanaU06-detaU09","298","28","satellites due massage bank feet slipped","hanaU"
"<h1>どちらの単語が聞こえましたか</h1>","612","1","iden_exp","hana","deta","1","U","9","A","6","hanaU","hanaU","hanaU09-detaA06","300","28","satellites due massage bank feet slipped","hanaU"
"<h1>どちらの単語が聞こえましたか</h1>","1279","1","iden_exp","hana","deta","1","A","3","U","11","hanaA","hanaA","hanaA03-detaU11","302","28","satellites due massage bank feet slipped","hanaA"
"<h1>どちらの単語が聞こえましたか</h1>","704","0","iden_exp","hana","deta","1","U","6","U","3","hanaU","hanaU","hanaU06-detaU03","304","28","satellites due massage bank feet slipped","hanaU"
"<h1>どちらの単語が聞こえましたか</h1>","561","1","iden_exp","hana","deta","1","U","5","U","5","hanaU","hanaU","hanaU05-detaU05","306","28","satellites due massage bank feet slipped","hanaU"
"<h1>どちらの単語が聞こえましたか</h1>","540","1","iden_exp","hana","deta","1","A","11","A","5","hanaA","hanaU","hanaA11-detaA05","308","28","satellites due massage bank feet slipped","hanaU"
"<h1>どちらの単語が聞こえましたか</h1>","540","1","iden_exp","hana","deta","1","U","9","A","3","hanaU","hanaU","hanaU09-detaA03","310","28","satellites due massage bank feet slipped","hanaU"
"<h1>どちらの単語が聞こえましたか</h1>","647","0","iden_exp","hana","deta","1","U","9","U","6","hanaU","hanaU","hanaU09-detaU06","312","28","satellites due massage bank feet slipped","hanaU"
"<h1>どちらの単語が聞こえましたか</h1>","597","0","iden_exp","hana","deta","1","A","11","U","5","hanaA","hanaA","hanaA11-detaU05","314","29","satellites due massage bank feet slipped","hanaA"
"<h1>どちらの単語が聞こえましたか</h1>","692","1","iden_exp","hana","deta","1","U","3","A","9","hanaU","hanaU","hanaU03-detaA09","316","29","satellites due massage bank feet slipped","hanaU"
"<h1>どちらの単語が聞こえましたか</h1>","725","0","iden_exp","hana","deta","1","A","7","A","3","hanaA","hanaU","hanaA07-detaA03","318","29","satellites due massage bank feet slipped","hanaA"
"<h1>どちらの単語が聞こえましたか</h1>","665","1","iden_exp","hana","deta","1","A","3","U","9","hanaA","hanaA","hanaA03-detaU09","320","29","satellites due massage bank feet slipped","hanaA"
"<h1>どちらの単語が聞こえましたか</h1>","481","1","iden_exp","hana","deta","1","A","1","U","6","hanaA","hanaA","hanaA01-detaU06","322","29","satellites due massage bank feet slipped","hanaA"
"<h1>どちらの単語が聞こえましたか</h1>","570","1","iden_exp","hana","deta","1","A","6","U","9","hanaA","hanaA","hanaA06-detaU09","324","29","satellites due massage bank feet slipped","hanaA"
"<h1>どちらの単語が聞こえましたか</h1>","619","0","iden_exp","hana","deta","1","A","7","U","6","hanaA","hanaA","hanaA07-detaU06","326","29","satellites due massage bank feet slipped","hanaA"
"<h1>どちらの単語が聞こえましたか</h1>","533","0","iden_exp","hana","deta","1","U","5","U","7","hanaU","hanaU","hanaU05-detaU07","328","29","satellites due massage bank feet slipped","hanaU"
"<h1>どちらの単語が聞こえましたか</h1>","576","0","iden_exp","hana","deta","1","U","6","U","7","hanaU","hanaU","hanaU06-detaU07","330","29","satellites due massage bank feet slipped","hanaU"
"<h1>どちらの単語が聞こえましたか</h1>","624","0","iden_exp","hana","deta","1","U","1","U","1","hanaU","hanaU","hanaU01-detaU01","332","29","satellites due massage bank feet slipped","hanaU"
"<h1>どちらの単語が聞こえましたか</h1>","1036","0","iden_exp","hana","deta","1","A","11","A","1","hanaA","hanaU","hanaA11-detaA01","334","30","satellites due massage bank feet slipped","hanaA"
"<h1>どちらの単語が聞こえましたか</h1>","528","0","iden_exp","hana","deta","1","U","9","A","1","hanaU","hanaU","hanaU09-detaA01","336","30","satellites due massage bank feet slipped","hanaU"
"<h1>どちらの単語が聞こえましたか</h1>","1038","1","iden_exp","hana","deta","1","A","6","A","9","hanaA","hanaU","hanaA06-detaA09","338","30","satellites due massage bank feet slipped","hanaU"
"<h1>どちらの単語が聞こえましたか</h1>","759","0","iden_exp","hana","deta","1","U","9","U","5","hanaU","hanaU","hanaU09-detaU05","340","30","satellites due massage bank feet slipped","hanaU"
"<h1>どちらの単語が聞こえましたか</h1>","608","0","iden_exp","hana","deta","1","A","1","A","7","hanaA","hanaU","hanaA01-detaA07","342","30","satellites due massage bank feet slipped","hanaA"
"<h1>どちらの単語が聞こえましたか</h1>","855","0","iden_exp","hana","deta","1","A","11","U","6","hanaA","hanaA","hanaA11-detaU06","344","30","satellites due massage bank feet slipped","hanaA"
"<h1>どちらの単語が聞こえましたか</h1>","504","1","iden_exp","hana","deta","1","U","5","U","1","hanaU","hanaU","hanaU05-detaU01","346","30","satellites due massage bank feet slipped","hanaU"
"<h1>どちらの単語が聞こえましたか</h1>","747","1","iden_exp","hana","deta","1","U","1","A","1","hanaU","hanaU","hanaU01-detaA01","348","30","satellites due massage bank feet slipped","hanaU"
"<h1>どちらの単語が聞こえましたか</h1>","527","0","iden_exp","hana","deta","1","A","3","U","1","hanaA","hanaA","hanaA03-detaU01","350","30","satellites due massage bank feet slipped","hanaA"
"<h1>どちらの単語が聞こえましたか</h1>","700","1","iden_exp","hana","deta","1","U","5","A","3","hanaU","hanaU","hanaU05-detaA03","352","30","satellites due massage bank feet slipped","hanaU"
"<h1>どちらの単語が聞こえましたか</h1>","501","1","iden_exp","hana","deta","1","U","6","A","3","hanaU","hanaU","hanaU06-detaA03","354","30","satellites due massage bank feet slipped","hanaU"
"<h1>どちらの単語が聞こえましたか</h1>","628","1","iden_exp","hana","deta","1","U","7","U","6","hanaU","hanaU","hanaU07-detaU06","356","31","satellites due massage bank feet slipped","hanaU"
"<h1>どちらの単語が聞こえましたか</h1>","632","1","iden_exp","hana","deta","1","A","1","A","5","hanaA","hanaU","hanaA01-detaA05","358","31","satellites due massage bank feet slipped","hanaU"
"<h1>どちらの単語が聞こえましたか</h1>","578","0","iden_exp","hana","deta","1","U","9","A","7","hanaU","hanaU","hanaU09-detaA07","360","31","satellites due massage bank feet slipped","hanaU"
"<h1>どちらの単語が聞こえましたか</h1>","575","0","iden_exp","hana","deta","1","U","6","U","1","hanaU","hanaU","hanaU06-detaU01","362","31","satellites due massage bank feet slipped","hanaU"
"<h1>どちらの単語が聞こえましたか</h1>","518","1","iden_exp","hana","deta","1","A","1","U","3","hanaA","hanaA","hanaA01-detaU03","364","31","satellites due massage bank feet slipped","hanaA"
"<h1>どちらの単語が聞こえましたか</h1>","588","1","iden_exp","hana","deta","1","U","1","A","6","hanaU","hanaU","hanaU01-detaA06","366","31","satellites due massage bank feet slipped","hanaU"
"<h1>どちらの単語が聞こえましたか</h1>","454","1","iden_exp","hana","deta","1","A","9","A","6","hanaA","hanaU","hanaA09-detaA06","368","31","satellites due massage bank feet slipped","hanaU"
"<h1>どちらの単語が聞こえましたか</h1>","491","1","iden_exp","hana","deta","1","A","1","U","9","hanaA","hanaA","hanaA01-detaU09","370","31","satellites due massage bank feet slipped","hanaA"
"<h1>どちらの単語が聞こえましたか</h1>","501","1","iden_exp","hana","deta","1","A","11","A","3","hanaA","hanaU","hanaA11-detaA03","372","31","satellites due massage bank feet slipped","hanaU"
"<h1>どちらの単語が聞こえましたか</h1>","463","0","iden_exp","hana","deta","1","A","11","U","7","hanaA","hanaA","hanaA11-detaU07","374","32","satellites due massage bank feet slipped","hanaA"
"<h1>どちらの単語が聞こえましたか</h1>","611","1","iden_exp","hana","deta","1","A","7","U","7","hanaA","hanaA","hanaA07-detaU07","376","32","satellites due massage bank feet slipped","hanaA"
"<h1>どちらの単語が聞こえましたか</h1>","621","0","iden_exp","hana","deta","1","A","1","A","11","hanaA","hanaU","hanaA01-detaA11","378","32","satellites due massage bank feet slipped","hanaA"
"<h1>どちらの単語が聞こえましたか</h1>","618","1","iden_exp","hana","deta","1","A","1","U","11","hanaA","hanaA","hanaA01-detaU11","380","32","satellites due massage bank feet slipped","hanaA"
"<h1>どちらの単語が聞こえましたか</h1>","684","0","iden_exp","hana","deta","1","A","1","A","3","hanaA","hanaU","hanaA01-detaA03","382","32","satellites due massage bank feet slipped","hanaA"
"<h1>どちらの単語が聞こえましたか</h1>","642","0","iden_exp","hana","deta","1","U","6","A","1","hanaU","hanaU","hanaU06-detaA01","384","33","satellites due massage bank feet slipped","hanaU"
"<h1>どちらの単語が聞こえましたか</h1>","953","0","iden_exp","hana","deta","1","A","5","U","11","hanaA","hanaA","hanaA05-detaU11","386","33","satellites due massage bank feet slipped","hanaA"
"<h1>どちらの単語が聞こえましたか</h1>","557","1","iden_exp","hana","deta","1","A","11","A","9","hanaA","hanaU","hanaA11-detaA09","388","34","satellites due massage bank feet slipped","hanaU"
"<h1>どちらの単語が聞こえましたか</h1>","646","0","iden_exp","hana","deta","1","A","9","A","5","hanaA","hanaU","hanaA09-detaA05","390","34","satellites due massage bank feet slipped","hanaA"
"<h1>どちらの単語が聞こえましたか</h1>","745","0","iden_exp","hana","deta","1","U","6","A","9","hanaU","hanaU","hanaU06-detaA09","392","34","satellites due massage bank feet slipped","hanaU"
"<h1>どちらの単語が聞こえましたか</h1>","540","1","iden_exp","hana","deta","1","A","1","U","7","hanaA","hanaA","hanaA01-detaU07","394","35","satellites due massage bank feet slipped","hanaA"
"<h1>どちらの単語が聞こえましたか</h1>","492","1","iden_exp","hana","deta","1","A","7","A","7","hanaA","hanaU","hanaA07-detaA07","396","35","satellites due massage bank feet slipped","hanaU"
"<h1>どちらの単語が聞こえましたか</h1>","1211","1","iden_exp","hana","deta","1","A","5","A","6","hanaA","hanaU","hanaA05-detaA06","398","35","satellites due massage bank feet slipped","hanaU"
"<h1>どちらの単語が聞こえましたか</h1>","605","0","iden_exp","hana","deta","1","U","9","U","7","hanaU","hanaU","hanaU09-detaU07","400","36","satellites due massage bank feet slipped","hanaU"
"<h1>どちらの単語が聞こえましたか</h1>","562","1","iden_exp","hana","deta","1","U","1","A","7","hanaU","hanaU","hanaU01-detaA07","402","36","satellites due massage bank feet slipped","hanaU"
"<h1>どちらの単語が聞こえましたか</h1>","790","1","iden_exp","hana","deta","1","U","11","U","1","hanaU","hanaU","hanaU11-detaU01","404","36","satellites due massage bank feet slipped","hanaU"
"<h1>どちらの単語が聞こえましたか</h1>","654","1","iden_exp","hana","deta","1","A","5","A","5","hanaA","hanaU","hanaA05-detaA05","406","36","satellites due massage bank feet slipped","hanaU"
"<h1>どちらの単語が聞こえましたか</h1>","708","0","iden_exp","hana","deta","1","U","5","A","6","hanaU","hanaU","hanaU05-detaA06","408","36","satellites due massage bank feet slipped","hanaU"
"<h1>どちらの単語が聞こえましたか</h1>","509","1","iden_exp","hana","deta","1","A","5","A","11","hanaA","hanaU","hanaA05-detaA11","410","36","satellites due massage bank feet slipped","hanaU"
"<h1>どちらの単語が聞こえましたか</h1>","607","0","iden_exp","hana","deta","1","U","6","A","11","hanaU","hanaU","hanaU06-detaA11","412","36","satellites due massage bank feet slipped","hanaU"
"<h1>どちらの単語が聞こえましたか</h1>","647","1","iden_exp","hana","deta","1","U","11","U","5","hanaU","hanaU","hanaU11-detaU05","414","37","satellites due massage bank feet slipped","hanaU"
"<h1>どちらの単語が聞こえましたか</h1>","587","1","iden_exp","hana","deta","1","A","6","A","6","hanaA","hanaU","hanaA06-detaA06","416","37","satellites due massage bank feet slipped","hanaU"
"<h1>どちらの単語が聞こえましたか</h1>","523","0","iden_exp","hana","deta","2","A","1","U","1","hanaA","hanaA","hanaA01-detaU01","419","37","satellites due massage bank feet slipped","hanaA"
"<h1>どちらの単語が聞こえましたか</h1>","781","1","iden_exp","hana","deta","2","U","1","A","3","hanaU","hanaU","hanaU01-detaA03","421","37","satellites due massage bank feet slipped","hanaU"
"<h1>どちらの単語が聞こえましたか</h1>","581","1","iden_exp","hana","deta","2","A","11","U","1","hanaA","hanaA","hanaA11-detaU01","423","37","satellites due massage bank feet slipped","hanaA"
"<h1>どちらの単語が聞こえましたか</h1>","860","0","iden_exp","hana","deta","2","A","1","A","11","hanaA","hanaU","hanaA01-detaA11","425","37","satellites due massage bank feet slipped","hanaU"
"<h1>どちらの単語が聞こえましたか</h1>","497","1","iden_exp","hana","deta","2","U","5","A","11","hanaU","hanaU","hanaU05-detaA11","427","37","satellites due massage bank feet slipped","hanaU"
"<h1>どちらの単語が聞こえましたか</h1>","496","0","iden_exp","hana","deta","2","U","1","A","9","hanaU","hanaU","hanaU01-detaA09","429","37","satellites due massage bank feet slipped","hanaU"
"<h1>どちらの単語が聞こえましたか</h1>","505","1","iden_exp","hana","deta","2","A","3","U","6","hanaA","hanaA","hanaA03-detaU06","431","37","satellites due massage bank feet slipped","hanaA"
"<h1>どちらの単語が聞こえましたか</h1>","535","0","iden_exp","hana","deta","2","A","6","A","3","hanaA","hanaU","hanaA06-detaA03","433","38","satellites due massage bank feet slipped","hanaU"
"<h1>どちらの単語が聞こえましたか</h1>","714","1","iden_exp","hana","deta","2","U","11","A","9","hanaU","hanaU","hanaU11-detaA09","435","38","satellites due massage bank feet slipped","hanaU"
"<h1>どちらの単語が聞こえましたか</h1>","671","0","iden_exp","hana","deta","2","U","7","U","5","hanaU","hanaU","hanaU07-detaU05","437","38","satellites due massage bank feet slipped","hanaU"
"<h1>どちらの単語が聞こえましたか</h1>","555","1","iden_exp","hana","deta","2","A","3","U","7","hanaA","hanaA","hanaA03-detaU07","439","39","satellites due massage bank feet slipped","hanaA"
"<h1>どちらの単語が聞こえましたか</h1>","980","1","iden_exp","hana","deta","2","A","9","A","11","hanaA","hanaU","hanaA09-detaA11","441","39","satellites due massage bank feet slipped","hanaA"
"<h1>どちらの単語が聞こえましたか</h1>","560","1","iden_exp","hana","deta","2","U","5","U","1","hanaU","hanaU","hanaU05-detaU01","443","39","satellites due massage bank feet slipped","hanaU"
"<h1>どちらの単語が聞こえましたか</h1>","593","1","iden_exp","hana","deta","2","U","1","A","6","hanaU","hanaU","hanaU01-detaA06","445","39","satellites due massage bank feet slipped","hanaU"
"<h1>どちらの単語が聞こえましたか</h1>","773","0","iden_exp","hana","deta","2","U","11","U","9","hanaU","hanaU","hanaU11-detaU09","447","39","satellites due massage bank feet slipped","hanaU"
"<h1>どちらの単語が聞こえましたか</h1>","614","0","iden_exp","hana","deta","2","A","9","A","5","hanaA","hanaU","hanaA09-detaA05","449","40","satellites due massage bank feet slipped","hanaU"
"<h1>どちらの単語が聞こえましたか</h1>","604","0","iden_exp","hana","deta","2","A","11","A","11","hanaA","hanaU","hanaA11-detaA11","451","40","satellites due massage bank feet slipped","hanaU"
"<h1>どちらの単語が聞こえましたか</h1>","481","1","iden_exp","hana","deta","2","U","3","U","5","hanaU","hanaU","hanaU03-detaU05","453","40","satellites due massage bank feet slipped","hanaU"
"<h1>どちらの単語が聞こえましたか</h1>","571","0","iden_exp","hana","deta","2","A","9","A","6","hanaA","hanaU","hanaA09-detaA06","455","40","satellites due massage bank feet slipped","hanaU"
"<h1>どちらの単語が聞こえましたか</h1>","962","0","iden_exp","hana","deta","2","U","9","U","9","hanaU","hanaU","hanaU09-detaU09","457","40","satellites due massage bank feet slipped","hanaU"
"<h1>どちらの単語が聞こえましたか</h1>","540","1","iden_exp","hana","deta","2","A","6","U","3","hanaA","hanaA","hanaA06-detaU03","459","40","satellites due massage bank feet slipped","hanaA"
"<h1>どちらの単語が聞こえましたか</h1>","441","0","iden_exp","hana","deta","2","A","6","A","6","hanaA","hanaU","hanaA06-detaA06","461","40","satellites due massage bank feet slipped","hanaU"
"<h1>どちらの単語が聞こえましたか</h1>","723","0","iden_exp","hana","deta","2","U","5","U","6","hanaU","hanaU","hanaU05-detaU06","463","40","satellites due massage bank feet slipped","hanaU"
"<h1>どちらの単語が聞こえましたか</h1>","939","1","iden_exp","hana","deta","2","U","1","U","6","hanaU","hanaU","hanaU01-detaU06","465","40","satellites due massage bank feet slipped","hanaU"
"<h1>どちらの単語が聞こえましたか</h1>","740","0","iden_exp","hana","deta","2","U","11","U","11","hanaU","hanaU","hanaU11-detaU11","467","40","satellites due massage bank feet slipped","hanaU"
"<h1>どちらの単語が聞こえましたか</h1>","587","1","iden_exp","hana","deta","2","U","11","A","1","hanaU","hanaU","hanaU11-detaA01","469","41","satellites due massage bank feet slipped","hanaU"
"<h1>どちらの単語が聞こえましたか</h1>","576","1","iden_exp","hana","deta","2","U","11","A","7","hanaU","hanaU","hanaU11-detaA07","471","41","satellites due massage bank feet slipped","hanaU"
"<h1>どちらの単語が聞こえましたか</h1>","737","1","iden_exp","hana","deta","2","A","5","A","7","hanaA","hanaU","hanaA05-detaA07","473","41","satellites due massage bank feet slipped","hanaA"
"<h1>どちらの単語が聞こえましたか</h1>","675","1","iden_exp","hana","deta","2","A","9","U","9","hanaA","hanaA","hanaA09-detaU09","475","41","satellites due massage bank feet slipped","hanaA"
"<h1>どちらの単語が聞こえましたか</h1>","704","1","iden_exp","hana","deta","2","U","9","U","11","hanaU","hanaU","hanaU09-detaU11","477","41","satellites due massage bank feet slipped","hanaU"
"<h1>どちらの単語が聞こえましたか</h1>","734","0","iden_exp","hana","deta","2","U","7","A","1","hanaU","hanaU","hanaU07-detaA01","479","41","satellites due massage bank feet slipped","hanaU"
"<h1>どちらの単語が聞こえましたか</h1>","547","1","iden_exp","hana","deta","2","U","5","U","5","hanaU","hanaU","hanaU05-detaU05","481","41","satellites due massage bank feet slipped","hanaU"
"<h1>どちらの単語が聞こえましたか</h1>","603","0","iden_exp","hana","deta","2","A","7","U","9","hanaA","hanaA","hanaA07-detaU09","483","41","satellites due massage bank feet slipped","hanaA"
"<h1>どちらの単語が聞こえましたか</h1>","715","0","iden_exp","hana","deta","2","A","5","A","11","hanaA","hanaU","hanaA05-detaA11","485","41","satellites due massage bank feet slipped","hanaU"
"<h1>どちらの単語が聞こえましたか</h1>","577","1","iden_exp","hana","deta","2","A","7","U","7","hanaA","hanaA","hanaA07-detaU07","487","41","satellites due massage bank feet slipped","hanaA"
"<h1>どちらの単語が聞こえましたか</h1>","574","0","iden_exp","hana","deta","2","U","9","A","7","hanaU","hanaU","hanaU09-detaA07","489","41","satellites due massage bank feet slipped","hanaU"
"<h1>どちらの単語が聞こえましたか</h1>","373","0","iden_exp","hana","deta","2","U","6","U","6","hanaU","hanaU","hanaU06-detaU06","491","42","satellites due massage bank feet slipped","hanaU"
"<h1>どちらの単語が聞こえましたか</h1>","569","0","iden_exp","hana","deta","2","U","5","A","3","hanaU","hanaU","hanaU05-detaA03","493","42","satellites due massage bank feet slipped","hanaU"
"<h1>どちらの単語が聞こえましたか</h1>","625","0","iden_exp","hana","deta","2","A","7","A","7","hanaA","hanaU","hanaA07-detaA07","495","42","satellites due massage bank feet slipped","hanaU"
"<h1>どちらの単語が聞こえましたか</h1>","566","0","iden_exp","hana","deta","2","U","1","A","7","hanaU","hanaU","hanaU01-detaA07","497","42","satellites due massage bank feet slipped","hanaU"
"<h1>どちらの単語が聞こえましたか</h1>","439","0","iden_exp","hana","deta","2","A","5","U","6","hanaA","hanaA","hanaA05-detaU06","499","42","satellites due massage bank feet slipped","hanaA"
"<h1>どちらの単語が聞こえましたか</h1>","556","1","iden_exp","hana","deta","2","A","11","A","5","hanaA","hanaU","hanaA11-detaA05","501","42","satellites due massage bank feet slipped","hanaA"
"<h1>どちらの単語が聞こえましたか</h1>","656","1","iden_exp","hana","deta","2","A","1","A","3","hanaA","hanaU","hanaA01-detaA03","503","42","satellites due massage bank feet slipped","hanaA"
"<h1>どちらの単語が聞こえましたか</h1>","528","1","iden_exp","hana","deta","2","A","1","U","7","hanaA","hanaA","hanaA01-detaU07","505","42","satellites due massage bank feet slipped","hanaA"
"<h1>どちらの単語が聞こえましたか</h1>","467","1","iden_exp","hana","deta","2","U","6","A","11","hanaU","hanaU","hanaU06-detaA11","507","43","satellites due massage bank feet slipped","hanaU"
"<h1>どちらの単語が聞こえましたか</h1>","846","1","iden_exp","hana","deta","2","U","7","U","11","hanaU","hanaU","hanaU07-detaU11","509","43","satellites due massage bank feet slipped","hanaU"
"<h1>どちらの単語が聞こえましたか</h1>","638","1","iden_exp","hana","deta","2","U","11","A","11","hanaU","hanaU","hanaU11-detaA11","511","44","satellites due massage bank feet slipped","hanaU"
"<h1>どちらの単語が聞こえましたか</h1>","654","1","iden_exp","hana","deta","2","A","9","A","9","hanaA","hanaU","hanaA09-detaA09","513","44","satellites due massage bank feet slipped","hanaA"
"<h1>どちらの単語が聞こえましたか</h1>","877","1","iden_exp","","","2","","","","","","","","515","44","satellites due massage bank feet slipped",""
"<h1>どちらの単語が聞こえましたか</h1>","518","0","iden_exp","hana","deta","2","A","7","U","3","hanaA","hanaA","hanaA07-detaU03","517","44","satellites due massage bank feet slipped","hanaA"
"<h1>どちらの単語が聞こえましたか</h1>","601","0","iden_exp","hana","deta","2","U","11","U","6","hanaU","hanaU","hanaU11-detaU06","519","44","satellites due massage bank feet slipped","hanaU"
"<h1>どちらの単語が聞こえましたか</h1>","654","1","iden_exp","hana","deta","2","A","9","A","3","hanaA","hanaU","hanaA09-detaA03","521","44","satellites due massage bank feet slipped","hanaA"
"<h1>どちらの単語が聞こえましたか</h1>","591","1","iden_exp","hana","deta","2","A","1","U","6","hanaA","hanaA","hanaA01-detaU06","523","45","satellites due massage bank feet slipped","hanaA"
"<h1>どちらの単語が聞こえましたか</h1>","610","1","iden_exp","hana","deta","2","A","7","U","11","hanaA","hanaA","hanaA07-detaU11","525","45","satellites due massage bank feet slipped","hanaA"
"<h1>どちらの単語が聞こえましたか</h1>","736","1","iden_exp","hana","deta","2","A","5","A","6","hanaA","hanaU","hanaA05-detaA06","527","45","satellites due massage bank feet slipped","hanaA"
"<h1>どちらの単語が聞こえましたか</h1>","667","1","iden_exp","hana","deta","2","U","3","A","11","hanaU","hanaU","hanaU03-detaA11","529","45","satellites due massage bank feet slipped","hanaU"
"<h1>どちらの単語が聞こえましたか</h1>","623","1","iden_exp","hana","deta","2","U","1","U","7","hanaU","hanaU","hanaU01-detaU07","531","45","satellites due massage bank feet slipped","hanaU"
"<h1>どちらの単語が聞こえましたか</h1>","583","0","iden_exp","hana","deta","2","A","6","A","5","hanaA","hanaU","hanaA06-detaA05","533","45","satellites due massage bank feet slipped","hanaU"
"<h1>どちらの単語が聞こえましたか</h1>","891","0","iden_exp","hana","deta","2","U","9","U","5","hanaU","hanaU","hanaU09-detaU05","535","45","satellites due massage bank feet slipped","hanaU"
"<h1>どちらの単語が聞こえましたか</h1>","868","1","iden_exp","hana","deta","2","U","6","U","1","hanaU","hanaU","hanaU06-detaU01","537","45","satellites due massage bank feet slipped","hanaU"
"<h1>どちらの単語が聞こえましたか</h1>","660","1","iden_exp","hana","deta","2","U","1","U","11","hanaU","hanaU","hanaU01-detaU11","539","45","satellites due massage bank feet slipped","hanaU"
"<h1>どちらの単語が聞こえましたか</h1>","430","1","iden_exp","hana","deta","2","U","7","U","6","hanaU","hanaU","hanaU07-detaU06","541","45","satellites due massage bank feet slipped","hanaU"
"<h1>どちらの単語が聞こえましたか</h1>","586","1","iden_exp","hana","deta","2","U","7","A","9","hanaU","hanaU","hanaU07-detaA09","543","46","satellites due massage bank feet slipped","hanaU"
"<h1>どちらの単語が聞こえましたか</h1>","786","0","iden_exp","hana","deta","2","A","5","U","7","hanaA","hanaA","hanaA05-detaU07","545","46","satellites due massage bank feet slipped","hanaA"
"<h1>どちらの単語が聞こえましたか</h1>","663","0","iden_exp","hana","deta","2","A","6","A","9","hanaA","hanaU","hanaA06-detaA09","547","46","satellites due massage bank feet slipped","hanaU"
"<h1>どちらの単語が聞こえましたか</h1>","594","0","iden_exp","hana","deta","2","U","3","U","3","hanaU","hanaU","hanaU03-detaU03","549","46","satellites due massage bank feet slipped","hanaU"
"<h1>どちらの単語が聞こえましたか</h1>","694","1","iden_exp","hana","deta","2","U","5","A","5","hanaU","hanaU","hanaU05-detaA05","551","46","satellites due massage bank feet slipped","hanaU"
"<h1>どちらの単語が聞こえましたか</h1>","602","1","iden_exp","hana","deta","2","U","5","A","6","hanaU","hanaU","hanaU05-detaA06","553","46","satellites due massage bank feet slipped","hanaU"
"<h1>どちらの単語が聞こえましたか</h1>","521","0","iden_exp","hana","deta","2","A","6","U","9","hanaA","hanaA","hanaA06-detaU09","555","46","satellites due massage bank feet slipped","hanaA"
"<h1>どちらの単語が聞こえましたか</h1>","610","0","iden_exp","hana","deta","2","A","1","A","9","hanaA","hanaU","hanaA01-detaA09","557","47","satellites due massage bank feet slipped","hanaU"
"<h1>どちらの単語が聞こえましたか</h1>","629","0","iden_exp","hana","deta","2","U","1","U","1","hanaU","hanaU","hanaU01-detaU01","559","47","satellites due massage bank feet slipped","hanaU"
"<h1>どちらの単語が聞こえましたか</h1>","555","1","iden_exp","hana","deta","2","U","1","U","9","hanaU","hanaU","hanaU01-detaU09","561","47","satellites due massage bank feet slipped","hanaU"
"<h1>どちらの単語が聞こえましたか</h1>","521","1","iden_exp","hana","deta","2","U","1","U","3","hanaU","hanaU","hanaU01-detaU03","563","47","satellites due massage bank feet slipped","hanaU"
"<h1>どちらの単語が聞こえましたか</h1>","881","0","iden_exp","hana","deta","2","U","9","U","1","hanaU","hanaU","hanaU09-detaU01","565","47","satellites due massage bank feet slipped","hanaU"
"<h1>どちらの単語が聞こえましたか</h1>","715","0","iden_exp","hana","deta","2","U","3","A","7","hanaU","hanaU","hanaU03-detaA07","567","47","satellites due massage bank feet slipped","hanaU"
"<h1>どちらの単語が聞こえましたか</h1>","599","1","iden_exp","hana","deta","2","U","9","A","3","hanaU","hanaU","hanaU09-detaA03","569","47","satellites due massage bank feet slipped","hanaU"
"<h1>どちらの単語が聞こえましたか</h1>","556","1","iden_exp","hana","deta","2","A","11","U","3","hanaA","hanaA","hanaA11-detaU03","571","48","satellites due massage bank feet slipped","hanaA"
"<h1>どちらの単語が聞こえましたか</h1>","591","1","iden_exp","hana","deta","2","A","7","U","5","hanaA","hanaA","hanaA07-detaU05","573","48","satellites due massage bank feet slipped","hanaA"
"<h1>どちらの単語が聞こえましたか</h1>","570","1","iden_exp","hana","deta","2","A","6","A","11","hanaA","hanaU","hanaA06-detaA11","575","48","satellites due massage bank feet slipped","hanaA"
"<h1>どちらの単語が聞こえましたか</h1>","507","1","iden_exp","hana","deta","2","U","11","U","3","hanaU","hanaU","hanaU11-detaU03","577","48","satellites due massage bank feet slipped","hanaU"
"<h1>どちらの単語が聞こえましたか</h1>","774","0","iden_exp","hana","deta","2","A","3","U","3","hanaA","hanaA","hanaA03-detaU03","579","48","satellites due massage bank feet slipped","hanaA"
"<h1>どちらの単語が聞こえましたか</h1>","938","1","iden_exp","hana","deta","2","A","9","U","11","hanaA","hanaA","hanaA09-detaU11","581","48","satellites due massage bank feet slipped","hanaA"
"<h1>どちらの単語が聞こえましたか</h1>","522","1","iden_exp","hana","deta","2","A","5","A","3","hanaA","hanaU","hanaA05-detaA03","583","48","satellites due massage bank feet slipped","hanaA"
"<h1>どちらの単語が聞こえましたか</h1>","587","1","iden_exp","hana","deta","2","A","7","A","9","hanaA","hanaU","hanaA07-detaA09","585","48","satellites due massage bank feet slipped","hanaA"
"<h1>どちらの単語が聞こえましたか</h1>","581","1","iden_exp","hana","deta","2","U","6","U","11","hanaU","hanaU","hanaU06-detaU11","587","48","satellites due massage bank feet slipped","hanaU"
"<h1>どちらの単語が聞こえましたか</h1>","1021","1","iden_exp","hana","deta","2","U","11","U","1","hanaU","hanaU","hanaU11-detaU01","589","49","satellites due massage bank feet slipped","hanaU"
"<h1>どちらの単語が聞こえましたか</h1>","522","1","iden_exp","hana","deta","2","U","9","U","6","hanaU","hanaU","hanaU09-detaU06","591","49","satellites due massage bank feet slipped","hanaU"
"<h1>どちらの単語が聞こえましたか</h1>","612","1","iden_exp","hana","deta","2","U","6","U","9","hanaU","hanaU","hanaU06-detaU09","593","49","satellites due massage bank feet slipped","hanaU"
"<h1>どちらの単語が聞こえましたか</h1>","571","0","iden_exp","hana","deta","2","U","6","U","5","hanaU","hanaU","hanaU06-detaU05","595","49","satellites due massage bank feet slipped","hanaU"
"<h1>どちらの単語が聞こえましたか</h1>","625","1","iden_exp","hana","deta","2","A","3","A","7","hanaA","hanaU","hanaA03-detaA07","597","49","satellites due massage bank feet slipped","hanaA"
"<h1>どちらの単語が聞こえましたか</h1>","498","1","iden_exp","hana","deta","2","A","7","A","11","hanaA","hanaU","hanaA07-detaA11","599","49","satellites due massage bank feet slipped","hanaA"
"<h1>どちらの単語が聞こえましたか</h1>","617","1","iden_exp","hana","deta","2","U","11","A","6","hanaU","hanaU","hanaU11-detaA06","601","49","satellites due massage bank feet slipped","hanaU"
"<h1>どちらの単語が聞こえましたか</h1>","513","0","iden_exp","hana","deta","2","A","5","A","1","hanaA","hanaU","hanaA05-detaA01","603","49","satellites due massage bank feet slipped","hanaU"
"<h1>どちらの単語が聞こえましたか</h1>","650","0","iden_exp","hana","deta","2","A","11","A","6","hanaA","hanaU","hanaA11-detaA06","605","49","satellites due massage bank feet slipped","hanaU"
"<h1>どちらの単語が聞こえましたか</h1>","835","1","iden_exp","hana","deta","2","A","3","U","9","hanaA","hanaA","hanaA03-detaU09","607","49","satellites due massage bank feet slipped","hanaA"
"<h1>どちらの単語が聞こえましたか</h1>","546","0","iden_exp","hana","deta","2","A","7","A","3","hanaA","hanaU","hanaA07-detaA03","609","49","satellites due massage bank feet slipped","hanaU"
"<h1>どちらの単語が聞こえましたか</h1>","417","0","iden_exp","hana","deta","2","A","9","U","5","hanaA","hanaA","hanaA09-detaU05","611","50","satellites due massage bank feet slipped","hanaA"
"<h1>どちらの単語が聞こえましたか</h1>","585","1","iden_exp","hana","deta","2","A","5","A","9","hanaA","hanaU","hanaA05-detaA09","613","50","satellites due massage bank feet slipped","hanaA"
"<h1>どちらの単語が聞こえましたか</h1>","909","0","iden_exp","hana","deta","2","A","5","U","3","hanaA","hanaA","hanaA05-detaU03","615","50","satellites due massage bank feet slipped","hanaA"
"<h1>どちらの単語が聞こえましたか</h1>","619","1","iden_exp","hana","deta","2","A","11","U","9","hanaA","hanaA","hanaA11-detaU09","617","50","satellites due massage bank feet slipped","hanaA"
"<h1>どちらの単語が聞こえましたか</h1>","675","1","iden_exp","hana","deta","2","A","3","U","1","hanaA","hanaA","hanaA03-detaU01","619","50","satellites due massage bank feet slipped","hanaA"
"<h1>どちらの単語が聞こえましたか</h1>","567","1","iden_exp","hana","deta","2","A","1","U","11","hanaA","hanaA","hanaA01-detaU11","621","50","satellites due massage bank feet slipped","hanaA"
"<h1>どちらの単語が聞こえましたか</h1>","746","1","iden_exp","hana","deta","2","A","6","U","1","hanaA","hanaA","hanaA06-detaU01","623","52","satellites due massage bank feet slipped","hanaA"
"<h1>どちらの単語が聞こえましたか</h1>","618","0","iden_exp","hana","deta","2","U","9","U","7","hanaU","hanaU","hanaU09-detaU07","625","52","satellites due massage bank feet slipped","hanaU"
"<h1>どちらの単語が聞こえましたか</h1>","549","1","iden_exp","hana","deta","2","A","6","A","7","hanaA","hanaU","hanaA06-detaA07","627","52","satellites due massage bank feet slipped","hanaA"
"<h1>どちらの単語が聞こえましたか</h1>","436","1","iden_exp","hana","deta","2","A","9","U","7","hanaA","hanaA","hanaA09-detaU07","629","52","satellites due massage bank feet slipped","hanaA"
"<h1>どちらの単語が聞こえましたか</h1>","446","1","iden_exp","hana","deta","2","A","9","U","6","hanaA","hanaA","hanaA09-detaU06","631","53","satellites due massage bank feet slipped","hanaA"
"<h1>どちらの単語が聞こえましたか</h1>","589","1","iden_exp","hana","deta","2","U","9","A","5","hanaU","hanaU","hanaU09-detaA05","633","53","satellites due massage bank feet slipped","hanaU"
"<h1>どちらの単語が聞こえましたか</h1>","709","1","iden_exp","hana","deta","2","U","3","U","7","hanaU","hanaU","hanaU03-detaU07","635","53","satellites due massage bank feet slipped","hanaU"
"<h1>どちらの単語が聞こえましたか</h1>","637","1","iden_exp","hana","deta","2","U","1","U","5","hanaU","hanaU","hanaU01-detaU05","637","53","satellites due massage bank feet slipped","hanaU"
"<h1>どちらの単語が聞こえましたか</h1>","651","0","iden_exp","hana","deta","2","U","1","A","5","hanaU","hanaU","hanaU01-detaA05","639","53","satellites due massage bank feet slipped","hanaU"
"<h1>どちらの単語が聞こえましたか</h1>","441","1","iden_exp","hana","deta","2","A","3","U","5","hanaA","hanaA","hanaA03-detaU05","641","53","satellites due massage bank feet slipped","hanaA"
"<h1>どちらの単語が聞こえましたか</h1>","501","1","iden_exp","hana","deta","2","U","6","U","7","hanaU","hanaU","hanaU06-detaU07","643","53","satellites due massage bank feet slipped","hanaU"
"<h1>どちらの単語が聞こえましたか</h1>","606","0","iden_exp","hana","deta","2","A","5","U","9","hanaA","hanaA","hanaA05-detaU09","645","53","satellites due massage bank feet slipped","hanaA"
"<h1>どちらの単語が聞こえましたか</h1>","594","0","iden_exp","hana","deta","2","U","9","A","1","hanaU","hanaU","hanaU09-detaA01","647","53","satellites due massage bank feet slipped","hanaU"
"<h1>どちらの単語が聞こえましたか</h1>","591","0","iden_exp","hana","deta","2","A","9","U","1","hanaA","hanaA","hanaA09-detaU01","649","53","satellites due massage bank feet slipped","hanaA"
"<h1>どちらの単語が聞こえましたか</h1>","626","0","iden_exp","hana","deta","2","U","9","A","11","hanaU","hanaU","hanaU09-detaA11","651","53","satellites due massage bank feet slipped","hanaU"
"<h1>どちらの単語が聞こえましたか</h1>","659","1","iden_exp","hana","deta","2","U","9","U","3","hanaU","hanaU","hanaU09-detaU03","653","54","satellites due massage bank feet slipped","hanaU"
"<h1>どちらの単語が聞こえましたか</h1>","575","1","iden_exp","hana","deta","2","A","11","U","7","hanaA","hanaA","hanaA11-detaU07","655","54","satellites due massage bank feet slipped","hanaA"
"<h1>どちらの単語が聞こえましたか</h1>","686","0","iden_exp","hana","deta","2","U","7","U","7","hanaU","hanaU","hanaU07-detaU07","657","54","satellites due massage bank feet slipped","hanaU"
"<h1>どちらの単語が聞こえましたか</h1>","1270","1","iden_exp","hana","deta","2","U","7","A","6","hanaU","hanaU","hanaU07-detaA06","659","54","satellites due massage bank feet slipped","hanaU"
"<h1>どちらの単語が聞こえましたか</h1>","752","1","iden_exp","hana","deta","2","A","7","A","1","hanaA","hanaU","hanaA07-detaA01","661","54","satellites due massage bank feet slipped","hanaA"
"<h1>どちらの単語が聞こえましたか</h1>","705","1","iden_exp","hana","deta","2","A","7","U","1","hanaA","hanaA","hanaA07-detaU01","663","54","satellites due massage bank feet slipped","hanaA"
"<h1>どちらの単語が聞こえましたか</h1>","660","1","iden_exp","hana","deta","2","A","9","U","3","hanaA","hanaA","hanaA09-detaU03","665","54","satellites due massage bank feet slipped","hanaA"
"<h1>どちらの単語が聞こえましたか</h1>","755","0","iden_exp","hana","deta","2","A","3","A","1","hanaA","hanaU","hanaA03-detaA01","667","54","satellites due massage bank feet slipped","hanaU"
"<h1>どちらの単語が聞こえましたか</h1>","473","1","iden_exp","hana","deta","2","U","11","U","5","hanaU","hanaU","hanaU11-detaU05","669","54","satellites due massage bank feet slipped","hanaU"
"<h1>どちらの単語が聞こえましたか</h1>","804","1","iden_exp","hana","deta","2","U","3","A","1","hanaU","hanaU","hanaU03-detaA01","671","54","satellites due massage bank feet slipped","hanaU"
"<h1>どちらの単語が聞こえましたか</h1>","592","0","iden_exp","hana","deta","2","A","5","U","11","hanaA","hanaA","hanaA05-detaU11","673","55","satellites due massage bank feet slipped","hanaA"
"<h1>どちらの単語が聞こえましたか</h1>","715","1","iden_exp","hana","deta","2","A","7","U","6","hanaA","hanaA","hanaA07-detaU06","675","55","satellites due massage bank feet slipped","hanaA"
"<h1>どちらの単語が聞こえましたか</h1>","554","0","iden_exp","hana","deta","2","A","1","A","6","hanaA","hanaU","hanaA01-detaA06","677","55","satellites due massage bank feet slipped","hanaU"
"<h1>どちらの単語が聞こえましたか</h1>","468","1","iden_exp","hana","deta","2","U","9","A","6","hanaU","hanaU","hanaU09-detaA06","679","55","satellites due massage bank feet slipped","hanaU"
"<h1>どちらの単語が聞こえましたか</h1>","558","0","iden_exp","hana","deta","2","A","9","A","7","hanaA","hanaU","hanaA09-detaA07","681","55","satellites due massage bank feet slipped","hanaU"
"<h1>どちらの単語が聞こえましたか</h1>","528","1","iden_exp","hana","deta","2","U","3","U","9","hanaU","hanaU","hanaU03-detaU09","683","55","satellites due massage bank feet slipped","hanaU"
"<h1>どちらの単語が聞こえましたか</h1>","521","1","iden_exp","hana","deta","2","A","11","A","3","hanaA","hanaU","hanaA11-detaA03","685","55","satellites due massage bank feet slipped","hanaA"
"<h1>どちらの単語が聞こえましたか</h1>","531","1","iden_exp","hana","deta","2","A","6","A","1","hanaA","hanaU","hanaA06-detaA01","687","55","satellites due massage bank feet slipped","hanaA"
"<h1>どちらの単語が聞こえましたか</h1>","583","0","iden_exp","hana","deta","2","A","1","U","3","hanaA","hanaA","hanaA01-detaU03","689","55","satellites due massage bank feet slipped","hanaA"
"<h1>どちらの単語が聞こえましたか</h1>","628","1","iden_exp","hana","deta","2","A","1","A","1","hanaA","hanaU","hanaA01-detaA01","691","56","satellites due massage bank feet slipped","hanaA"
"<h1>どちらの単語が聞こえましたか</h1>","652","1","iden_exp","hana","deta","2","U","3","A","3","hanaU","hanaU","hanaU03-detaA03","693","56","satellites due massage bank feet slipped","hanaU"
"<h1>どちらの単語が聞こえましたか</h1>","846","0","iden_exp","hana","deta","2","U","7","A","3","hanaU","hanaU","hanaU07-detaA03","695","56","satellites due massage bank feet slipped","hanaU"
"<h1>どちらの単語が聞こえましたか</h1>","604","0","iden_exp","hana","deta","2","A","1","A","5","hanaA","hanaU","hanaA01-detaA05","697","56","satellites due massage bank feet slipped","hanaU"
"<h1>どちらの単語が聞こえましたか</h1>","607","1","iden_exp","hana","deta","2","A","1","A","7","hanaA","hanaU","hanaA01-detaA07","699","56","satellites due massage bank feet slipped","hanaA"
"<h1>どちらの単語が聞こえましたか</h1>","638","1","iden_exp","hana","deta","2","A","1","U","9","hanaA","hanaA","hanaA01-detaU09","701","56","satellites due massage bank feet slipped","hanaA"
"<h1>どちらの単語が聞こえましたか</h1>","718","1","iden_exp","hana","deta","2","A","6","U","6","hanaA","hanaA","hanaA06-detaU06","703","56","satellites due massage bank feet slipped","hanaA"
"<h1>どちらの単語が聞こえましたか</h1>","611","1","iden_exp","hana","deta","2","A","7","A","5","hanaA","hanaU","hanaA07-detaA05","705","56","satellites due massage bank feet slipped","hanaA"
"<h1>どちらの単語が聞こえましたか</h1>","570","1","iden_exp","hana","deta","2","U","3","A","5","hanaU","hanaU","hanaU03-detaA05","707","56","satellites due massage bank feet slipped","hanaU"
"<h1>どちらの単語が聞こえましたか</h1>","402","1","iden_exp","hana","deta","2","U","5","U","9","hanaU","hanaU","hanaU05-detaU09","709","56","satellites due massage bank feet slipped","hanaU"
"<h1>どちらの単語が聞こえましたか</h1>","570","0","iden_exp","hana","deta","2","A","11","A","1","hanaA","hanaU","hanaA11-detaA01","711","57","satellites due massage bank feet slipped","hanaU"
"<h1>どちらの単語が聞こえましたか</h1>","918","1","iden_exp","hana","deta","2","U","6","A","7","hanaU","hanaU","hanaU06-detaA07","713","57","satellites due massage bank feet slipped","hanaU"
"<h1>どちらの単語が聞こえましたか</h1>","390","1","iden_exp","hana","deta","2","U","5","A","9","hanaU","hanaU","hanaU05-detaA09","715","57","satellites due massage bank feet slipped","hanaU"
"<h1>どちらの単語が聞こえましたか</h1>","599","0","iden_exp","hana","deta","2","U","5","U","11","hanaU","hanaU","hanaU05-detaU11","717","57","satellites due massage bank feet slipped","hanaU"
"<h1>どちらの単語が聞こえましたか</h1>","678","1","iden_exp","hana","deta","2","A","3","A","5","hanaA","hanaU","hanaA03-detaA05","719","57","satellites due massage bank feet slipped","hanaA"
"<h1>どちらの単語が聞こえましたか</h1>","714","1","iden_exp","hana","deta","2","A","3","A","6","hanaA","hanaU","hanaA03-detaA06","721","57","satellites due massage bank feet slipped","hanaA"
"<h1>どちらの単語が聞こえましたか</h1>","599","0","iden_exp","hana","deta","2","A","5","U","1","hanaA","hanaA","hanaA05-detaU01","723","57","satellites due massage bank feet slipped","hanaA"
"<h1>どちらの単語が聞こえましたか</h1>","642","0","iden_exp","hana","deta","2","U","6","A","3","hanaU","hanaU","hanaU06-detaA03","725","57","satellites due massage bank feet slipped","hanaU"
"<h1>どちらの単語が聞こえましたか</h1>","783","0","iden_exp","hana","deta","2","A","3","U","11","hanaA","hanaA","hanaA03-detaU11","727","57","satellites due massage bank feet slipped","hanaA"
"<h1>どちらの単語が聞こえましたか</h1>","554","0","iden_exp","hana","deta","2","U","3","A","9","hanaU","hanaU","hanaU03-detaA09","729","57","satellites due massage bank feet slipped","hanaU"
"<h1>どちらの単語が聞こえましたか</h1>","705","0","iden_exp","hana","deta","2","U","3","U","11","hanaU","hanaU","hanaU03-detaU11","731","57","satellites due massage bank feet slipped","hanaU"
"<h1>どちらの単語が聞こえましたか</h1>","696","1","iden_exp","hana","deta","2","U","6","A","5","hanaU","hanaU","hanaU06-detaA05","733","58","satellites due massage bank feet slipped","hanaU"
"<h1>どちらの単語が聞こえましたか</h1>","634","0","iden_exp","hana","deta","2","U","7","U","1","hanaU","hanaU","hanaU07-detaU01","735","58","satellites due massage bank feet slipped","hanaU"
"<h1>どちらの単語が聞こえましたか</h1>","577","1","iden_exp","hana","deta","2","A","3","A","9","hanaA","hanaU","hanaA03-detaA09","737","58","satellites due massage bank feet slipped","hanaA"
"<h1>どちらの単語が聞こえましたか</h1>","826","1","iden_exp","hana","deta","2","A","6","U","7","hanaA","hanaA","hanaA06-detaU07","739","58","satellites due massage bank feet slipped","hanaA"
"<h1>どちらの単語が聞こえましたか</h1>","493","0","iden_exp","hana","deta","2","A","1","U","5","hanaA","hanaA","hanaA01-detaU05","741","58","satellites due massage bank feet slipped","hanaA"
"<h1>どちらの単語が聞こえましたか</h1>","557","0","iden_exp","hana","deta","2","U","6","A","9","hanaU","hanaU","hanaU06-detaA09","743","58","satellites due massage bank feet slipped","hanaU"
"<h1>どちらの単語が聞こえましたか</h1>","1132","0","iden_exp","hana","deta","2","A","3","A","11","hanaA","hanaU","hanaA03-detaA11","745","58","satellites due massage bank feet slipped","hanaU"
"<h1>どちらの単語が聞こえましたか</h1>","531","0","iden_exp","hana","deta","2","U","6","A","6","hanaU","hanaU","hanaU06-detaA06","747","59","satellites due massage bank feet slipped","hanaU"
"<h1>どちらの単語が聞こえましたか</h1>","496","1","iden_exp","hana","deta","2","U","5","U","3","hanaU","hanaU","hanaU05-detaU03","749","59","satellites due massage bank feet slipped","hanaU"
"<h1>どちらの単語が聞こえましたか</h1>","516","1","iden_exp","hana","deta","2","U","7","A","7","hanaU","hanaU","hanaU07-detaA07","751","59","satellites due massage bank feet slipped","hanaU"
"<h1>どちらの単語が聞こえましたか</h1>","780","0","iden_exp","hana","deta","2","U","9","A","9","hanaU","hanaU","hanaU09-detaA09","753","59","satellites due massage bank feet slipped","hanaU"
"<h1>どちらの単語が聞こえましたか</h1>","523","0","iden_exp","hana","deta","2","A","6","U","5","hanaA","hanaA","hanaA06-detaU05","755","59","satellites due massage bank feet slipped","hanaA"
"<h1>どちらの単語が聞こえましたか</h1>","543","0","iden_exp","hana","deta","2","U","1","A","1","hanaU","hanaU","hanaU01-detaA01","757","59","satellites due massage bank feet slipped","hanaU"
"<h1>どちらの単語が聞こえましたか</h1>","763","1","iden_exp","hana","deta","2","U","5","U","7","hanaU","hanaU","hanaU05-detaU07","759","59","satellites due massage bank feet slipped","hanaU"
"<h1>どちらの単語が聞こえましたか</h1>","584","0","iden_exp","hana","deta","2","A","11","U","5","hanaA","hanaA","hanaA11-detaU05","761","59","satellites due massage bank feet slipped","hanaA"
"<h1>どちらの単語が聞こえましたか</h1>","627","1","iden_exp","hana","deta","2","A","11","A","9","hanaA","hanaU","hanaA11-detaA09","763","60","satellites due massage bank feet slipped","hanaA"
"<h1>どちらの単語が聞こえましたか</h1>","458","0","iden_exp","hana","deta","2","A","11","U","6","hanaA","hanaA","hanaA11-detaU06","765","60","satellites due massage bank feet slipped","hanaA"
"<h1>どちらの単語が聞こえましたか</h1>","617","0","iden_exp","hana","deta","2","U","11","A","5","hanaU","hanaU","hanaU11-detaA05","767","60","satellites due massage bank feet slipped","hanaU"
"<h1>どちらの単語が聞こえましたか</h1>","651","0","iden_exp","hana","deta","2","U","7","A","5","hanaU","hanaU","hanaU07-detaA05","769","60","satellites due massage bank feet slipped","hanaU"
"<h1>どちらの単語が聞こえましたか</h1>","666","1","iden_exp","hana","deta","2","A","9","A","1","hanaA","hanaU","hanaA09-detaA01","771","60","satellites due massage bank feet slipped","hanaA"
"<h1>どちらの単語が聞こえましたか</h1>","528","1","iden_exp","hana","deta","2","U","3","A","6","hanaU","hanaU","hanaU03-detaA06","773","60","satellites due massage bank feet slipped","hanaU"
"<h1>どちらの単語が聞こえましたか</h1>","485","1","iden_exp","hana","deta","2","U","11","A","3","hanaU","hanaU","hanaU11-detaA03","775","60","satellites due massage bank feet slipped","hanaU"
"<h1>どちらの単語が聞こえましたか</h1>","585","0","iden_exp","hana","deta","2","U","11","U","7","hanaU","hanaU","hanaU11-detaU07","777","60","satellites due massage bank feet slipped","hanaU"
"<h1>どちらの単語が聞こえましたか</h1>","879","1","iden_exp","hana","deta","2","U","7","A","11","hanaU","hanaU","hanaU07-detaA11","779","61","satellites due massage bank feet slipped","hanaU"
"<h1>どちらの単語が聞こえましたか</h1>","513","1","iden_exp","hana","deta","2","U","3","U","1","hanaU","hanaU","hanaU03-detaU01","781","61","satellites due massage bank feet slipped","hanaU"
"<h1>どちらの単語が聞こえましたか</h1>","906","0","iden_exp","hana","deta","2","A","11","A","7","hanaA","hanaU","hanaA11-detaA07","783","61","satellites due massage bank feet slipped","hanaU"
"<h1>どちらの単語が聞こえましたか</h1>","554","0","iden_exp","hana","deta","2","A","7","A","6","hanaA","hanaU","hanaA07-detaA06","785","61","satellites due massage bank feet slipped","hanaU"
"<h1>どちらの単語が聞こえましたか</h1>","710","0","iden_exp","hana","deta","2","U","6","A","1","hanaU","hanaU","hanaU06-detaA01","787","61","satellites due massage bank feet slipped","hanaU"
"<h1>どちらの単語が聞こえましたか</h1>","656","1","iden_exp","hana","deta","2","A","3","A","3","hanaA","hanaU","hanaA03-detaA03","789","61","satellites due massage bank feet slipped","hanaA"
"<h1>どちらの単語が聞こえましたか</h1>","657","1","iden_exp","hana","deta","2","A","5","U","5","hanaA","hanaA","hanaA05-detaU05","791","61","satellites due massage bank feet slipped","hanaA"
"<h1>どちらの単語が聞こえましたか</h1>","739","0","iden_exp","hana","deta","2","U","7","U","9","hanaU","hanaU","hanaU07-detaU09","793","61","satellites due massage bank feet slipped","hanaU"
"<h1>どちらの単語が聞こえましたか</h1>","645","0","iden_exp","hana","deta","2","U","6","U","3","hanaU","hanaU","hanaU06-detaU03","795","61","satellites due massage bank feet slipped","hanaU"
"<h1>どちらの単語が聞こえましたか</h1>","743","0","iden_exp","hana","deta","2","A","11","U","11","hanaA","hanaA","hanaA11-detaU11","797","61","satellites due massage bank feet slipped","hanaA"
"<h1>どちらの単語が聞こえましたか</h1>","483","1","iden_exp","hana","deta","2","A","6","U","11","hanaA","hanaA","hanaA06-detaU11","799","61","satellites due massage bank feet slipped","hanaA"
"<h1>どちらの単語が聞こえましたか</h1>","513","1","iden_exp","hana","deta","2","U","1","A","11","hanaU","hanaU","hanaU01-detaA11","801","62","satellites due massage bank feet slipped","hanaU"
"<h1>どちらの単語が聞こえましたか</h1>","635","1","iden_exp","hana","deta","2","U","7","U","3","hanaU","hanaU","hanaU07-detaU03","803","62","satellites due massage bank feet slipped","hanaU"
"<h1>どちらの単語が聞こえましたか</h1>","800","0","iden_exp","hana","deta","2","U","3","U","6","hanaU","hanaU","hanaU03-detaU06","805","62","satellites due massage bank feet slipped","hanaU"
"<h1>どちらの単語が聞こえましたか</h1>","646","1","iden_exp","hana","deta","2","U","5","A","1","hanaU","hanaU","hanaU05-detaA01","807","62","satellites due massage bank feet slipped","hanaU"
"<h1>どちらの単語が聞こえましたか</h1>","660","0","iden_exp","hana","deta","2","U","5","A","7","hanaU","hanaU","hanaU05-detaA07","809","63","satellites due massage bank feet slipped","hanaU"
"<h1>どちらの単語が聞こえましたか</h1>","889","1","iden_exp","hana","deta","2","A","5","A","5","hanaA","hanaU","hanaA05-detaA05","811","63","satellites due massage bank feet slipped","hanaA"
