"stimulus","rt","response","phase","word","carrier","block","wordAccent","wordAccentStep","carrierAccent","carrierAccentStep","option_0","option_1","sound","trial_index","time_elapsed","participantID","answer"
"<h1>どちらの単語が聞こえましたか</h1>","505","1","practice","hana","deta","2","A","1","","1","hanaA","hanaU","hanaA01-detaA01","4","4","still discovery","hanaU"
"<h1>どちらの単語が聞こえましたか</h1>","571","0","practice","hana","deta","2","A","11","","11","hanaA","hanaU","hanaA11-detaA11","6","4","still discovery","hanaA"
"<h1>どちらの単語が聞こえましたか</h1>","646","1","practice","hana","deta","2","U","1","","1","hanaA","hanaU","hanaU01-detaU01","8","4","still discovery","hanaU"
"<h1>どちらの単語が聞こえましたか</h1>","563","1","practice","hana","deta","2","U","11","","11","hanaA","hanaU","hanaU11-detaU11","10","5","still discovery","hanaU"
"<h1>どちらの単語が聞こえましたか</h1>","730","0","practice","hana","deta","2","A","1","","1","hanaA","hanaU","hanaA01-detaU01","13","5","still discovery","hanaU"
"<h1>どちらの単語が聞こえましたか</h1>","698","0","practice","hana","deta","2","A","11","","11","hanaA","hanaU","hanaA11-detaU11","15","6","still discovery","hanaU"
"<h1>どちらの単語が聞こえましたか</h1>","859","1","practice","hana","deta","2","U","1","","1","hanaA","hanaU","hanaU01-detaA01","17","6","still discovery","hanaA"
"<h1>どちらの単語が聞こえましたか</h1>","606","1","practice","hana","deta","2","U","11","","11","hanaA","hanaU","hanaU11-detaA11","19","6","still discovery","hanaA"
"<h1>どちらの単語が聞こえましたか</h1>","602","0","iden_exp","hana","deta","1","A","5","","1","hanaA","hanaU","hanaA05-detaA01","22","6","still discovery","hanaA"
"<h1>どちらの単語が聞こえましたか</h1>","649","0","iden_exp","hana","deta","1","A","9","","9","hanaA","hanaA","hanaA09-detaU09","24","6","still discovery","hanaA"
"<h1>どちらの単語が聞こえましたか</h1>","808","1","iden_exp","hana","deta","1","A","11","","6","hanaA","hanaU","hanaA11-detaA06","26","6","still discovery","hanaU"
"<h1>どちらの単語が聞こえましたか</h1>","551","1","iden_exp","hana","deta","1","A","1","","7","hanaA","hanaA","hanaA01-detaU07","28","6","still discovery","hanaA"
"<h1>どちらの単語が聞こえましたか</h1>","959","1","iden_exp","hana","deta","1","A","1","","7","hanaA","hanaU","hanaA01-detaA07","30","6","still discovery","hanaU"
"<h1>どちらの単語が聞こえましたか</h1>","603","1","iden_exp","hana","deta","1","A","5","","6","hanaA","hanaU","hanaA05-detaA06","32","6","still discovery","hanaU"
"<h1>どちらの単語が聞こえましたか</h1>","571","1","iden_exp","hana","deta","1","U","9","","1","hanaU","hanaU","hanaU09-detaA01","34","6","still discovery","hanaU"
"<h1>どちらの単語が聞こえましたか</h1>","766","0","iden_exp","hana","deta","1","U","11","","11","hanaU","hanaU","hanaU11-detaA11","36","7","still discovery","hanaU"
"<h1>どちらの単語が聞こえましたか</h1>","482","1","iden_exp","hana","deta","1","U","3","","3","hanaU","hanaU","hanaU03-detaU03","38","7","still discovery","hanaU"
"<h1>どちらの単語が聞こえましたか</h1>","668","0","iden_exp","hana","deta","1","A","3","","9","hanaA","hanaU","hanaA03-detaA09","40","7","still discovery","hanaA"
"<h1>どちらの単語が聞こえましたか</h1>","536","1","iden_exp","hana","deta","1","A","1","","6","hanaA","hanaA","hanaA01-detaU06","42","7","still discovery","hanaA"
"<h1>どちらの単語が聞こえましたか</h1>","650","1","iden_exp","hana","deta","1","U","7","","6","hanaU","hanaU","hanaU07-detaU06","44","7","still discovery","hanaU"
"<h1>どちらの単語が聞こえましたか</h1>","683","1","iden_exp","hana","deta","1","A","9","","6","hanaA","hanaU","hanaA09-detaA06","46","7","still discovery","hanaU"
"<h1>どちらの単語が聞こえましたか</h1>","584","1","iden_exp","hana","deta","1","U","6","","6","hanaU","hanaU","hanaU06-detaU06","48","7","still discovery","hanaU"
"<h1>どちらの単語が聞こえましたか</h1>","909","1","iden_exp","hana","deta","1","U","5","","3","hanaU","hanaU","hanaU05-detaA03","50","8","still discovery","hanaU"
"<h1>どちらの単語が聞こえましたか</h1>","673","1","iden_exp","hana","deta","1","A","5","","1","hanaA","hanaA","hanaA05-detaU01","52","8","still discovery","hanaA"
"<h1>どちらの単語が聞こえましたか</h1>","765","1","iden_exp","hana","deta","1","U","3","","7","hanaU","hanaU","hanaU03-detaA07","54","8","still discovery","hanaU"
"<h1>どちらの単語が聞こえましたか</h1>","717","1","iden_exp","hana","deta","1","A","7","","11","hanaA","hanaU","hanaA07-detaA11","56","8","still discovery","hanaU"
"<h1>どちらの単語が聞こえましたか</h1>","553","0","iden_exp","hana","deta","1","A","11","","5","hanaA","hanaU","hanaA11-detaA05","58","8","still discovery","hanaA"
"<h1>どちらの単語が聞こえましたか</h1>","624","1","iden_exp","hana","deta","1","A","11","","6","hanaA","hanaA","hanaA11-detaU06","60","8","still discovery","hanaA"
"<h1>どちらの単語が聞こえましたか</h1>","817","0","iden_exp","hana","deta","1","U","1","","9","hanaU","hanaU","hanaU01-detaU09","62","9","still discovery","hanaU"
"<h1>どちらの単語が聞こえましたか</h1>","713","1","iden_exp","hana","deta","1","U","3","","1","hanaU","hanaU","hanaU03-detaU01","64","9","still discovery","hanaU"
"<h1>どちらの単語が聞こえましたか</h1>","500","0","iden_exp","hana","deta","1","A","5","","3","hanaA","hanaU","hanaA05-detaA03","66","9","still discovery","hanaA"
"<h1>どちらの単語が聞こえましたか</h1>","1250","1","iden_exp","hana","deta","1","A","1","","1","hanaA","hanaU","hanaA01-detaA01","68","9","still discovery","hanaU"
"<h1>どちらの単語が聞こえましたか</h1>","805","0","iden_exp","hana","deta","1","U","5","","6","hanaU","hanaU","hanaU05-detaU06","70","9","still discovery","hanaU"
"<h1>どちらの単語が聞こえましたか</h1>","535","0","iden_exp","hana","deta","1","A","3","","9","hanaA","hanaA","hanaA03-detaU09","72","11","still discovery","hanaA"
"<h1>どちらの単語が聞こえましたか</h1>","577","1","iden_exp","hana","deta","1","U","6","","11","hanaU","hanaU","hanaU06-detaA11","74","11","still discovery","hanaU"
"<h1>どちらの単語が聞こえましたか</h1>","810","0","iden_exp","hana","deta","1","A","9","","5","hanaA","hanaA","hanaA09-detaU05","76","11","still discovery","hanaA"
"<h1>どちらの単語が聞こえましたか</h1>","495","1","iden_exp","hana","deta","1","U","9","","9","hanaU","hanaU","hanaU09-detaU09","78","11","still discovery","hanaU"
"<h1>どちらの単語が聞こえましたか</h1>","642","0","iden_exp","hana","deta","1","U","6","","1","hanaU","hanaU","hanaU06-detaU01","80","12","still discovery","hanaU"
"<h1>どちらの単語が聞こえましたか</h1>","523","1","iden_exp","hana","deta","1","U","1","","6","hanaU","hanaU","hanaU01-detaU06","82","12","still discovery","hanaU"
"<h1>どちらの単語が聞こえましたか</h1>","626","1","iden_exp","hana","deta","1","A","11","","11","hanaA","hanaU","hanaA11-detaA11","84","12","still discovery","hanaU"
"<h1>どちらの単語が聞こえましたか</h1>","522","0","iden_exp","hana","deta","1","U","6","","9","hanaU","hanaU","hanaU06-detaU09","86","12","still discovery","hanaU"
"<h1>どちらの単語が聞こえましたか</h1>","598","1","iden_exp","hana","deta","1","A","7","","5","hanaA","hanaU","hanaA07-detaA05","88","12","still discovery","hanaU"
"<h1>どちらの単語が聞こえましたか</h1>","508","0","iden_exp","hana","deta","1","A","7","","7","hanaA","hanaU","hanaA07-detaA07","90","12","still discovery","hanaA"
"<h1>どちらの単語が聞こえましたか</h1>","511","1","iden_exp","hana","deta","1","A","5","","6","hanaA","hanaA","hanaA05-detaU06","92","13","still discovery","hanaA"
"<h1>どちらの単語が聞こえましたか</h1>","639","0","iden_exp","hana","deta","1","U","7","","11","hanaU","hanaU","hanaU07-detaA11","94","13","still discovery","hanaU"
"<h1>どちらの単語が聞こえましたか</h1>","522","1","iden_exp","hana","deta","1","A","6","","5","hanaA","hanaA","hanaA06-detaU05","96","13","still discovery","hanaA"
"<h1>どちらの単語が聞こえましたか</h1>","572","0","iden_exp","hana","deta","1","U","11","","1","hanaU","hanaU","hanaU11-detaA01","98","13","still discovery","hanaU"
"<h1>どちらの単語が聞こえましたか</h1>","491","1","iden_exp","hana","deta","1","A","11","","1","hanaA","hanaU","hanaA11-detaA01","100","13","still discovery","hanaU"
"<h1>どちらの単語が聞こえましたか</h1>","523","1","iden_exp","hana","deta","1","U","6","","1","hanaU","hanaU","hanaU06-detaA01","102","13","still discovery","hanaU"
"<h1>どちらの単語が聞こえましたか</h1>","1042","1","iden_exp","hana","deta","1","U","5","","5","hanaU","hanaU","hanaU05-detaU05","104","13","still discovery","hanaU"
"<h1>どちらの単語が聞こえましたか</h1>","558","1","iden_exp","hana","deta","1","A","11","","7","hanaA","hanaU","hanaA11-detaA07","106","13","still discovery","hanaU"
"<h1>どちらの単語が聞こえましたか</h1>","504","0","iden_exp","hana","deta","1","U","6","","7","hanaU","hanaU","hanaU06-detaA07","108","13","still discovery","hanaU"
"<h1>どちらの単語が聞こえましたか</h1>","561","1","iden_exp","hana","deta","1","A","6","","9","hanaA","hanaA","hanaA06-detaU09","110","13","still discovery","hanaA"
"<h1>どちらの単語が聞こえましたか</h1>","655","0","iden_exp","hana","deta","1","U","6","","5","hanaU","hanaU","hanaU06-detaA05","112","13","still discovery","hanaU"
"<h1>どちらの単語が聞こえましたか</h1>","710","1","iden_exp","hana","deta","1","A","3","","6","hanaA","hanaA","hanaA03-detaU06","114","13","still discovery","hanaA"
"<h1>どちらの単語が聞こえましたか</h1>","830","0","iden_exp","hana","deta","1","A","6","","6","hanaA","hanaA","hanaA06-detaU06","116","13","still discovery","hanaA"
"<h1>どちらの単語が聞こえましたか</h1>","837","0","iden_exp","hana","deta","1","A","6","","11","hanaA","hanaA","hanaA06-detaU11","118","14","still discovery","hanaA"
"<h1>どちらの単語が聞こえましたか</h1>","823","0","iden_exp","hana","deta","1","A","3","","11","hanaA","hanaA","hanaA03-detaU11","120","14","still discovery","hanaA"
"<h1>どちらの単語が聞こえましたか</h1>","843","1","iden_exp","hana","deta","1","A","11","","9","hanaA","hanaU","hanaA11-detaA09","122","14","still discovery","hanaU"
"<h1>どちらの単語が聞こえましたか</h1>","525","0","iden_exp","hana","deta","1","A","11","","3","hanaA","hanaU","hanaA11-detaA03","124","14","still discovery","hanaA"
"<h1>どちらの単語が聞こえましたか</h1>","811","1","iden_exp","hana","deta","1","A","9","","3","hanaA","hanaU","hanaA09-detaA03","126","14","still discovery","hanaU"
"<h1>どちらの単語が聞こえましたか</h1>","600","1","iden_exp","hana","deta","1","U","7","","9","hanaU","hanaU","hanaU07-detaA09","128","14","still discovery","hanaU"
"<h1>どちらの単語が聞こえましたか</h1>","1092","0","iden_exp","hana","deta","1","U","1","","11","hanaU","hanaU","hanaU01-detaU11","130","14","still discovery","hanaU"
"<h1>どちらの単語が聞こえましたか</h1>","528","0","iden_exp","hana","deta","1","U","11","","6","hanaU","hanaU","hanaU11-detaU06","132","14","still discovery","hanaU"
"<h1>どちらの単語が聞こえましたか</h1>","480","0","iden_exp","hana","deta","1","A","5","","9","hanaA","hanaA","hanaA05-detaU09","134","14","still discovery","hanaA"
"<h1>どちらの単語が聞こえましたか</h1>","835","0","iden_exp","hana","deta","1","A","1","","9","hanaA","hanaA","hanaA01-detaU09","136","14","still discovery","hanaA"
"<h1>どちらの単語が聞こえましたか</h1>","487","0","iden_exp","hana","deta","1","U","9","","1","hanaU","hanaU","hanaU09-detaU01","138","14","still discovery","hanaU"
"<h1>どちらの単語が聞こえましたか</h1>","532","1","iden_exp","hana","deta","1","A","11","","3","hanaA","hanaA","hanaA11-detaU03","140","15","still discovery","hanaA"
"<h1>どちらの単語が聞こえましたか</h1>","732","1","iden_exp","hana","deta","1","U","1","","5","hanaU","hanaU","hanaU01-detaU05","142","15","still discovery","hanaU"
"<h1>どちらの単語が聞こえましたか</h1>","658","0","iden_exp","hana","deta","1","A","9","","11","hanaA","hanaU","hanaA09-detaA11","144","15","still discovery","hanaA"
"<h1>どちらの単語が聞こえましたか</h1>","542","0","iden_exp","hana","deta","1","U","7","","5","hanaU","hanaU","hanaU07-detaA05","146","15","still discovery","hanaU"
"<h1>どちらの単語が聞こえましたか</h1>","508","0","iden_exp","hana","deta","1","U","5","","5","hanaU","hanaU","hanaU05-detaA05","148","15","still discovery","hanaU"
"<h1>どちらの単語が聞こえましたか</h1>","471","0","iden_exp","hana","deta","1","U","3","","5","hanaU","hanaU","hanaU03-detaA05","150","15","still discovery","hanaU"
"<h1>どちらの単語が聞こえましたか</h1>","674","1","iden_exp","hana","deta","1","U","6","","6","hanaU","hanaU","hanaU06-detaA06","152","15","still discovery","hanaU"
"<h1>どちらの単語が聞こえましたか</h1>","875","1","iden_exp","hana","deta","1","U","5","","6","hanaU","hanaU","hanaU05-detaA06","154","15","still discovery","hanaU"
"<h1>どちらの単語が聞こえましたか</h1>","903","0","iden_exp","hana","deta","1","A","7","","9","hanaA","hanaA","hanaA07-detaU09","156","15","still discovery","hanaA"
"<h1>どちらの単語が聞こえましたか</h1>","524","0","iden_exp","hana","deta","1","U","6","","9","hanaU","hanaU","hanaU06-detaA09","158","15","still discovery","hanaU"
"<h1>どちらの単語が聞こえましたか</h1>","578","1","iden_exp","hana","deta","1","A","3","","7","hanaA","hanaU","hanaA03-detaA07","160","15","still discovery","hanaU"
"<h1>どちらの単語が聞こえましたか</h1>","894","1","iden_exp","hana","deta","1","A","7","","3","hanaA","hanaA","hanaA07-detaU03","162","15","still discovery","hanaA"
"<h1>どちらの単語が聞こえましたか</h1>","613","1","iden_exp","hana","deta","1","A","1","","5","hanaA","hanaU","hanaA01-detaA05","164","16","still discovery","hanaU"
"<h1>どちらの単語が聞こえましたか</h1>","927","1","iden_exp","hana","deta","1","U","7","","7","hanaU","hanaU","hanaU07-detaU07","166","16","still discovery","hanaU"
"<h1>どちらの単語が聞こえましたか</h1>","639","1","iden_exp","hana","deta","1","A","11","","5","hanaA","hanaA","hanaA11-detaU05","168","16","still discovery","hanaA"
"<h1>どちらの単語が聞こえましたか</h1>","639","0","iden_exp","hana","deta","1","U","6","","7","hanaU","hanaU","hanaU06-detaU07","170","16","still discovery","hanaU"
"<h1>どちらの単語が聞こえましたか</h1>","864","0","iden_exp","hana","deta","1","A","5","","3","hanaA","hanaA","hanaA05-detaU03","172","16","still discovery","hanaA"
"<h1>どちらの単語が聞こえましたか</h1>","575","1","iden_exp","hana","deta","1","A","11","","9","hanaA","hanaA","hanaA11-detaU09","174","16","still discovery","hanaA"
"<h1>どちらの単語が聞こえましたか</h1>","642","0","iden_exp","hana","deta","1","U","7","","5","hanaU","hanaU","hanaU07-detaU05","176","16","still discovery","hanaU"
"<h1>どちらの単語が聞こえましたか</h1>","498","0","iden_exp","hana","deta","1","U","7","","1","hanaU","hanaU","hanaU07-detaA01","178","16","still discovery","hanaU"
"<h1>どちらの単語が聞こえましたか</h1>","815","0","iden_exp","hana","deta","1","U","5","","3","hanaU","hanaU","hanaU05-detaU03","180","16","still discovery","hanaU"
"<h1>どちらの単語が聞こえましたか</h1>","622","1","iden_exp","hana","deta","1","A","9","","1","hanaA","hanaU","hanaA09-detaA01","182","16","still discovery","hanaU"
"<h1>どちらの単語が聞こえましたか</h1>","610","1","iden_exp","hana","deta","1","U","11","","7","hanaU","hanaU","hanaU11-detaA07","184","16","still discovery","hanaU"
"<h1>どちらの単語が聞こえましたか</h1>","867","1","iden_exp","hana","deta","1","A","1","","5","hanaA","hanaA","hanaA01-detaU05","186","16","still discovery","hanaA"
"<h1>どちらの単語が聞こえましたか</h1>","605","1","iden_exp","hana","deta","1","U","9","","5","hanaU","hanaU","hanaU09-detaA05","188","17","still discovery","hanaU"
"<h1>どちらの単語が聞こえましたか</h1>","460","0","iden_exp","hana","deta","1","A","6","","11","hanaA","hanaU","hanaA06-detaA11","190","17","still discovery","hanaA"
"<h1>どちらの単語が聞こえましたか</h1>","573","0","iden_exp","hana","deta","1","U","5","","7","hanaU","hanaU","hanaU05-detaA07","192","17","still discovery","hanaU"
"<h1>どちらの単語が聞こえましたか</h1>","577","0","iden_exp","hana","deta","1","U","3","","9","hanaU","hanaU","hanaU03-detaA09","194","17","still discovery","hanaU"
"<h1>どちらの単語が聞こえましたか</h1>","560","1","iden_exp","hana","deta","1","A","3","","11","hanaA","hanaU","hanaA03-detaA11","196","17","still discovery","hanaU"
"<h1>どちらの単語が聞こえましたか</h1>","694","0","iden_exp","hana","deta","1","U","3","","1","hanaU","hanaU","hanaU03-detaA01","198","17","still discovery","hanaU"
"<h1>どちらの単語が聞こえましたか</h1>","569","0","iden_exp","hana","deta","1","U","9","","9","hanaU","hanaU","hanaU09-detaA09","200","17","still discovery","hanaU"
"<h1>どちらの単語が聞こえましたか</h1>","560","0","iden_exp","hana","deta","1","U","7","","1","hanaU","hanaU","hanaU07-detaU01","202","17","still discovery","hanaU"
"<h1>どちらの単語が聞こえましたか</h1>","499","0","iden_exp","hana","deta","1","A","6","","5","hanaA","hanaU","hanaA06-detaA05","204","17","still discovery","hanaA"
"<h1>どちらの単語が聞こえましたか</h1>","556","1","iden_exp","hana","deta","1","U","1","","3","hanaU","hanaU","hanaU01-detaA03","206","17","still discovery","hanaU"
"<h1>どちらの単語が聞こえましたか</h1>","902","0","iden_exp","hana","deta","1","A","3","","7","hanaA","hanaA","hanaA03-detaU07","208","17","still discovery","hanaA"
"<h1>どちらの単語が聞こえましたか</h1>","1030","1","iden_exp","hana","deta","1","A","3","","3","hanaA","hanaU","hanaA03-detaA03","210","17","still discovery","hanaU"
"<h1>どちらの単語が聞こえましたか</h1>","1392","0","iden_exp","hana","deta","1","A","6","","3","hanaA","hanaU","hanaA06-detaA03","212","17","still discovery","hanaA"
"<h1>どちらの単語が聞こえましたか</h1>","694","1","iden_exp","hana","deta","1","A","3","","3","hanaA","hanaA","hanaA03-detaU03","214","17","still discovery","hanaA"
"<h1>どちらの単語が聞こえましたか</h1>","906","0","iden_exp","hana","deta","1","U","11","","3","hanaU","hanaU","hanaU11-detaU03","216","17","still discovery","hanaU"
"<h1>どちらの単語が聞こえましたか</h1>","594","0","iden_exp","hana","deta","1","A","7","","7","hanaA","hanaA","hanaA07-detaU07","218","18","still discovery","hanaA"
"<h1>どちらの単語が聞こえましたか</h1>","509","0","iden_exp","hana","deta","1","A","5","","11","hanaA","hanaU","hanaA05-detaA11","220","18","still discovery","hanaA"
"<h1>どちらの単語が聞こえましたか</h1>","555","1","iden_exp","hana","deta","1","A","11","","11","hanaA","hanaA","hanaA11-detaU11","222","18","still discovery","hanaA"
"<h1>どちらの単語が聞こえましたか</h1>","707","0","iden_exp","hana","deta","1","U","1","","6","hanaU","hanaU","hanaU01-detaA06","224","18","still discovery","hanaU"
"<h1>どちらの単語が聞こえましたか</h1>","505","0","iden_exp","hana","deta","1","A","1","","6","hanaA","hanaU","hanaA01-detaA06","226","18","still discovery","hanaA"
"<h1>どちらの単語が聞こえましたか</h1>","630","1","iden_exp","hana","deta","1","U","11","","1","hanaU","hanaU","hanaU11-detaU01","228","18","still discovery","hanaU"
"<h1>どちらの単語が聞こえましたか</h1>","1157","1","iden_exp","hana","deta","1","A","9","","1","hanaA","hanaA","hanaA09-detaU01","230","18","still discovery","hanaA"
"<h1>どちらの単語が聞こえましたか</h1>","604","1","iden_exp","hana","deta","1","U","7","","6","hanaU","hanaU","hanaU07-detaA06","232","18","still discovery","hanaU"
"<h1>どちらの単語が聞こえましたか</h1>","1109","1","iden_exp","hana","deta","1","U","6","","11","hanaU","hanaU","hanaU06-detaU11","234","18","still discovery","hanaU"
"<h1>どちらの単語が聞こえましたか</h1>","536","1","iden_exp","hana","deta","1","U","3","","5","hanaU","hanaU","hanaU03-detaU05","236","18","still discovery","hanaU"
"<h1>どちらの単語が聞こえましたか</h1>","758","1","iden_exp","hana","deta","1","A","9","","3","hanaA","hanaA","hanaA09-detaU03","238","18","still discovery","hanaA"
"<h1>どちらの単語が聞こえましたか</h1>","992","1","iden_exp","hana","deta","1","A","1","","3","hanaA","hanaU","hanaA01-detaA03","240","18","still discovery","hanaU"
"<h1>どちらの単語が聞こえましたか</h1>","930","1","iden_exp","hana","deta","1","A","6","","7","hanaA","hanaU","hanaA06-detaA07","242","18","still discovery","hanaU"
"<h1>どちらの単語が聞こえましたか</h1>","648","0","iden_exp","hana","deta","1","U","11","","5","hanaU","hanaU","hanaU11-detaU05","244","18","still discovery","hanaU"
"<h1>どちらの単語が聞こえましたか</h1>","676","1","iden_exp","hana","deta","1","U","11","","5","hanaU","hanaU","hanaU11-detaA05","246","19","still discovery","hanaU"
"<h1>どちらの単語が聞こえましたか</h1>","713","0","iden_exp","hana","deta","1","A","7","","6","hanaA","hanaU","hanaA07-detaA06","248","19","still discovery","hanaA"
"<h1>どちらの単語が聞こえましたか</h1>","634","0","iden_exp","hana","deta","1","A","9","","5","hanaA","hanaU","hanaA09-detaA05","250","19","still discovery","hanaA"
"<h1>どちらの単語が聞こえましたか</h1>","623","1","iden_exp","hana","deta","1","U","3","","11","hanaU","hanaU","hanaU03-detaU11","252","19","still discovery","hanaU"
"<h1>どちらの単語が聞こえましたか</h1>","634","1","iden_exp","hana","deta","1","U","5","","1","hanaU","hanaU","hanaU05-detaA01","254","19","still discovery","hanaU"
"<h1>どちらの単語が聞こえましたか</h1>","592","0","iden_exp","hana","deta","1","U","9","","7","hanaU","hanaU","hanaU09-detaA07","256","19","still discovery","hanaU"
"<h1>どちらの単語が聞こえましたか</h1>","547","0","iden_exp","hana","deta","1","U","11","","3","hanaU","hanaU","hanaU11-detaA03","258","19","still discovery","hanaU"
"<h1>どちらの単語が聞こえましたか</h1>","464","1","iden_exp","hana","deta","1","U","1","","11","hanaU","hanaU","hanaU01-detaA11","260","19","still discovery","hanaU"
"<h1>どちらの単語が聞こえましたか</h1>","578","1","iden_exp","hana","deta","1","U","5","","9","hanaU","hanaU","hanaU05-detaU09","262","19","still discovery","hanaU"
"<h1>どちらの単語が聞こえましたか</h1>","681","1","iden_exp","hana","deta","1","A","6","","3","hanaA","hanaA","hanaA06-detaU03","264","20","still discovery","hanaA"
"<h1>どちらの単語が聞こえましたか</h1>","537","1","iden_exp","hana","deta","1","A","3","","5","hanaA","hanaA","hanaA03-detaU05","266","20","still discovery","hanaA"
"<h1>どちらの単語が聞こえましたか</h1>","552","1","iden_exp","hana","deta","1","U","11","","9","hanaU","hanaU","hanaU11-detaA09","268","21","still discovery","hanaU"
"<h1>どちらの単語が聞こえましたか</h1>","639","0","iden_exp","hana","deta","1","U","9","","7","hanaU","hanaU","hanaU09-detaU07","270","21","still discovery","hanaU"
"<h1>どちらの単語が聞こえましたか</h1>","650","0","iden_exp","hana","deta","1","U","9","","3","hanaU","hanaU","hanaU09-detaA03","272","21","still discovery","hanaU"
"<h1>どちらの単語が聞こえましたか</h1>","448","0","iden_exp","hana","deta","1","U","3","","11","hanaU","hanaU","hanaU03-detaA11","274","21","still discovery","hanaU"
"<h1>どちらの単語が聞こえましたか</h1>","536","0","iden_exp","hana","deta","1","A","6","","6","hanaA","hanaU","hanaA06-detaA06","276","21","still discovery","hanaA"
"<h1>どちらの単語が聞こえましたか</h1>","514","0","iden_exp","hana","deta","1","U","11","","7","hanaU","hanaU","hanaU11-detaU07","278","21","still discovery","hanaU"
"<h1>どちらの単語が聞こえましたか</h1>","631","0","iden_exp","hana","deta","1","U","1","","1","hanaU","hanaU","hanaU01-detaA01","280","21","still discovery","hanaU"
"<h1>どちらの単語が聞こえましたか</h1>","878","1","iden_exp","hana","deta","1","A","7","","1","hanaA","hanaA","hanaA07-detaU01","282","21","still discovery","hanaA"
"<h1>どちらの単語が聞こえましたか</h1>","483","1","iden_exp","hana","deta","1","A","5","","11","hanaA","hanaA","hanaA05-detaU11","284","21","still discovery","hanaA"
"<h1>どちらの単語が聞こえましたか</h1>","603","1","iden_exp","hana","deta","1","U","7","","7","hanaU","hanaU","hanaU07-detaA07","286","21","still discovery","hanaU"
"<h1>どちらの単語が聞こえましたか</h1>","597","1","iden_exp","hana","deta","1","A","1","","3","hanaA","hanaA","hanaA01-detaU03","288","21","still discovery","hanaA"
"<h1>どちらの単語が聞こえましたか</h1>","1439","1","iden_exp","hana","deta","1","U","1","","7","hanaU","hanaU","hanaU01-detaA07","290","21","still discovery","hanaU"
"<h1>どちらの単語が聞こえましたか</h1>","536","1","iden_exp","hana","deta","1","U","9","","3","hanaU","hanaU","hanaU09-detaU03","292","22","still discovery","hanaU"
"<h1>どちらの単語が聞こえましたか</h1>","553","1","iden_exp","hana","deta","1","U","6","","3","hanaU","hanaU","hanaU06-detaA03","294","22","still discovery","hanaU"
"<h1>どちらの単語が聞こえましたか</h1>","737","0","iden_exp","hana","deta","1","A","7","","1","hanaA","hanaU","hanaA07-detaA01","296","22","still discovery","hanaA"
"<h1>どちらの単語が聞こえましたか</h1>","556","1","iden_exp","hana","deta","1","A","1","","11","hanaA","hanaU","hanaA01-detaA11","298","22","still discovery","hanaU"
"<h1>どちらの単語が聞こえましたか</h1>","539","0","iden_exp","hana","deta","1","U","1","","5","hanaU","hanaU","hanaU01-detaA05","300","22","still discovery","hanaU"
"<h1>どちらの単語が聞こえましたか</h1>","474","1","iden_exp","hana","deta","1","A","3","","5","hanaA","hanaU","hanaA03-detaA05","302","22","still discovery","hanaU"
"<h1>どちらの単語が聞こえましたか</h1>","921","1","iden_exp","hana","deta","1","A","1","","11","hanaA","hanaA","hanaA01-detaU11","304","22","still discovery","hanaA"
"<h1>どちらの単語が聞こえましたか</h1>","635","0","iden_exp","hana","deta","1","U","3","","7","hanaU","hanaU","hanaU03-detaU07","306","22","still discovery","hanaU"
"<h1>どちらの単語が聞こえましたか</h1>","517","0","iden_exp","hana","deta","1","A","6","","9","hanaA","hanaU","hanaA06-detaA09","308","22","still discovery","hanaA"
"<h1>どちらの単語が聞こえましたか</h1>","836","0","iden_exp","hana","deta","1","A","5","","7","hanaA","hanaA","hanaA05-detaU07","310","22","still discovery","hanaA"
"<h1>どちらの単語が聞こえましたか</h1>","731","0","iden_exp","hana","deta","1","A","6","","1","hanaA","hanaA","hanaA06-detaU01","312","22","still discovery","hanaA"
"<h1>どちらの単語が聞こえましたか</h1>","613","1","iden_exp","hana","deta","1","U","11","","6","hanaU","hanaU","hanaU11-detaA06","314","22","still discovery","hanaU"
"<h1>どちらの単語が聞こえましたか</h1>","937","1","iden_exp","hana","deta","1","U","11","","9","hanaU","hanaU","hanaU11-detaU09","316","22","still discovery","hanaU"
"<h1>どちらの単語が聞こえましたか</h1>","553","0","iden_exp","hana","deta","1","A","9","","7","hanaA","hanaU","hanaA09-detaA07","318","22","still discovery","hanaA"
"<h1>どちらの単語が聞こえましたか</h1>","546","0","iden_exp","hana","deta","1","U","3","","6","hanaU","hanaU","hanaU03-detaA06","320","22","still discovery","hanaU"
"<h1>どちらの単語が聞こえましたか</h1>","485","0","iden_exp","hana","deta","1","A","5","","7","hanaA","hanaU","hanaA05-detaA07","322","22","still discovery","hanaA"
"<h1>どちらの単語が聞こえましたか</h1>","502","1","iden_exp","hana","deta","1","A","9","","7","hanaA","hanaA","hanaA09-detaU07","324","23","still discovery","hanaA"
"<h1>どちらの単語が聞こえましたか</h1>","655","1","iden_exp","hana","deta","1","U","3","","6","hanaU","hanaU","hanaU03-detaU06","326","23","still discovery","hanaU"
"<h1>どちらの単語が聞こえましたか</h1>","722","0","iden_exp","hana","deta","1","A","5","","5","hanaA","hanaA","hanaA05-detaU05","328","23","still discovery","hanaA"
"<h1>どちらの単語が聞こえましたか</h1>","629","1","iden_exp","hana","deta","1","A","7","","6","hanaA","hanaA","hanaA07-detaU06","330","23","still discovery","hanaA"
"<h1>どちらの単語が聞こえましたか</h1>","512","0","iden_exp","hana","deta","1","U","1","","9","hanaU","hanaU","hanaU01-detaA09","332","23","still discovery","hanaU"
"<h1>どちらの単語が聞こえましたか</h1>","750","0","iden_exp","hana","deta","1","U","6","","3","hanaU","hanaU","hanaU06-detaU03","334","23","still discovery","hanaU"
"<h1>どちらの単語が聞こえましたか</h1>","564","1","iden_exp","hana","deta","1","U","9","","5","hanaU","hanaU","hanaU09-detaU05","336","23","still discovery","hanaU"
"<h1>どちらの単語が聞こえましたか</h1>","580","1","iden_exp","hana","deta","1","A","9","","11","hanaA","hanaA","hanaA09-detaU11","338","23","still discovery","hanaA"
"<h1>どちらの単語が聞こえましたか</h1>","851","0","iden_exp","hana","deta","1","A","5","","9","hanaA","hanaU","hanaA05-detaA09","340","23","still discovery","hanaA"
"<h1>どちらの単語が聞こえましたか</h1>","652","0","iden_exp","hana","deta","1","A","1","","9","hanaA","hanaU","hanaA01-detaA09","342","23","still discovery","hanaA"
"<h1>どちらの単語が聞こえましたか</h1>","773","0","iden_exp","hana","deta","1","U","9","","6","hanaU","hanaU","hanaU09-detaU06","344","23","still discovery","hanaU"
"<h1>どちらの単語が聞こえましたか</h1>","877","0","iden_exp","hana","deta","1","A","1","","1","hanaA","hanaA","hanaA01-detaU01","346","23","still discovery","hanaA"
"<h1>どちらの単語が聞こえましたか</h1>","524","1","iden_exp","hana","deta","1","A","6","","1","hanaA","hanaU","hanaA06-detaA01","348","23","still discovery","hanaU"
"<h1>どちらの単語が聞こえましたか</h1>","788","0","iden_exp","hana","deta","1","A","3","","1","hanaA","hanaA","hanaA03-detaU01","350","23","still discovery","hanaA"
"<h1>どちらの単語が聞こえましたか</h1>","507","0","iden_exp","hana","deta","1","A","9","","9","hanaA","hanaU","hanaA09-detaA09","352","23","still discovery","hanaA"
"<h1>どちらの単語が聞こえましたか</h1>","751","0","iden_exp","hana","deta","1","A","5","","5","hanaA","hanaU","hanaA05-detaA05","354","23","still discovery","hanaA"
"<h1>どちらの単語が聞こえましたか</h1>","465","1","iden_exp","hana","deta","1","A","7","","9","hanaA","hanaU","hanaA07-detaA09","356","24","still discovery","hanaU"
"<h1>どちらの単語が聞こえましたか</h1>","598","0","iden_exp","hana","deta","1","U","3","","9","hanaU","hanaU","hanaU03-detaU09","358","24","still discovery","hanaU"
"<h1>どちらの単語が聞こえましたか</h1>","596","0","iden_exp","hana","deta","1","U","1","","7","hanaU","hanaU","hanaU01-detaU07","360","24","still discovery","hanaU"
"<h1>どちらの単語が聞こえましたか</h1>","575","0","iden_exp","hana","deta","1","U","9","","6","hanaU","hanaU","hanaU09-detaA06","362","24","still discovery","hanaU"
"<h1>どちらの単語が聞こえましたか</h1>","517","1","iden_exp","hana","deta","1","A","9","","6","hanaA","hanaA","hanaA09-detaU06","364","24","still discovery","hanaA"
"<h1>どちらの単語が聞こえましたか</h1>","437","1","iden_exp","hana","deta","1","U","5","","11","hanaU","hanaU","hanaU05-detaU11","366","24","still discovery","hanaU"
"<h1>どちらの単語が聞こえましたか</h1>","797","0","iden_exp","hana","deta","1","U","5","","11","hanaU","hanaU","hanaU05-detaA11","368","24","still discovery","hanaU"
"<h1>どちらの単語が聞こえましたか</h1>","595","1","iden_exp","hana","deta","1","U","7","","9","hanaU","hanaU","hanaU07-detaU09","370","24","still discovery","hanaU"
"<h1>どちらの単語が聞こえましたか</h1>","519","1","iden_exp","hana","deta","1","U","9","","11","hanaU","hanaU","hanaU09-detaA11","372","24","still discovery","hanaU"
"<h1>どちらの単語が聞こえましたか</h1>","534","1","iden_exp","hana","deta","1","U","5","","9","hanaU","hanaU","hanaU05-detaA09","374","24","still discovery","hanaU"
"<h1>どちらの単語が聞こえましたか</h1>","471","1","iden_exp","hana","deta","1","U","9","","11","hanaU","hanaU","hanaU09-detaU11","376","24","still discovery","hanaU"
"<h1>どちらの単語が聞こえましたか</h1>","514","1","iden_exp","hana","deta","1","U","3","","3","hanaU","hanaU","hanaU03-detaA03","378","24","still discovery","hanaU"
"<h1>どちらの単語が聞こえましたか</h1>","488","1","iden_exp","hana","deta","1","U","1","","1","hanaU","hanaU","hanaU01-detaU01","380","24","still discovery","hanaU"
"<h1>どちらの単語が聞こえましたか</h1>","579","0","iden_exp","hana","deta","1","U","5","","1","hanaU","hanaU","hanaU05-detaU01","382","24","still discovery","hanaU"
"<h1>どちらの単語が聞こえましたか</h1>","537","1","iden_exp","hana","deta","1","A","3","","1","hanaA","hanaU","hanaA03-detaA01","384","25","still discovery","hanaU"
"<h1>どちらの単語が聞こえましたか</h1>","633","0","iden_exp","hana","deta","1","U","11","","11","hanaU","hanaU","hanaU11-detaU11","386","25","still discovery","hanaU"
"<h1>どちらの単語が聞こえましたか</h1>","718","1","iden_exp","hana","deta","1","U","7","","3","hanaU","hanaU","hanaU07-detaA03","388","25","still discovery","hanaU"
"<h1>どちらの単語が聞こえましたか</h1>","750","1","iden_exp","hana","deta","1","A","7","","11","hanaA","hanaA","hanaA07-detaU11","390","25","still discovery","hanaA"
"<h1>どちらの単語が聞こえましたか</h1>","522","0","iden_exp","hana","deta","1","A","7","","5","hanaA","hanaA","hanaA07-detaU05","392","25","still discovery","hanaA"
"<h1>どちらの単語が聞こえましたか</h1>","513","0","iden_exp","hana","deta","1","U","5","","7","hanaU","hanaU","hanaU05-detaU07","394","25","still discovery","hanaU"
"<h1>どちらの単語が聞こえましたか</h1>","518","0","iden_exp","hana","deta","1","A","7","","3","hanaA","hanaU","hanaA07-detaA03","396","25","still discovery","hanaA"
"<h1>どちらの単語が聞こえましたか</h1>","723","1","iden_exp","hana","deta","1","A","11","","7","hanaA","hanaA","hanaA11-detaU07","398","25","still discovery","hanaA"
"<h1>どちらの単語が聞こえましたか</h1>","678","0","iden_exp","hana","deta","1","U","6","","5","hanaU","hanaU","hanaU06-detaU05","400","25","still discovery","hanaU"
"<h1>どちらの単語が聞こえましたか</h1>","798","1","iden_exp","hana","deta","1","A","3","","6","hanaA","hanaU","hanaA03-detaA06","402","25","still discovery","hanaU"
"<h1>どちらの単語が聞こえましたか</h1>","575","1","iden_exp","hana","deta","1","A","6","","7","hanaA","hanaA","hanaA06-detaU07","404","25","still discovery","hanaA"
"<h1>どちらの単語が聞こえましたか</h1>","576","0","iden_exp","hana","deta","1","U","1","","3","hanaU","hanaU","hanaU01-detaU03","406","25","still discovery","hanaU"
"<h1>どちらの単語が聞こえましたか</h1>","770","1","iden_exp","hana","deta","1","U","7","","11","hanaU","hanaU","hanaU07-detaU11","408","25","still discovery","hanaU"
"<h1>どちらの単語が聞こえましたか</h1>","772","0","iden_exp","hana","deta","1","A","11","","1","hanaA","hanaA","hanaA11-detaU01","410","26","still discovery","hanaA"
"<h1>どちらの単語が聞こえましたか</h1>","573","1","iden_exp","hana","deta","1","U","7","","3","hanaU","hanaU","hanaU07-detaU03","412","26","still discovery","hanaU"
"<h1>どちらの単語が聞こえましたか</h1>","514","1","iden_exp","hana","deta","2","U","11","","6","hanaU","hanaU","hanaU11-detaA06","415","26","still discovery","hanaU"
"<h1>どちらの単語が聞こえましたか</h1>","663","1","iden_exp","hana","deta","2","U","3","","5","hanaU","hanaU","hanaU03-detaU05","417","26","still discovery","hanaU"
"<h1>どちらの単語が聞こえましたか</h1>","647","1","iden_exp","hana","deta","2","A","9","","9","hanaA","hanaA","hanaA09-detaU09","419","26","still discovery","hanaA"
"<h1>どちらの単語が聞こえましたか</h1>","497","0","iden_exp","hana","deta","2","U","11","","1","hanaU","hanaU","hanaU11-detaU01","421","26","still discovery","hanaU"
"<h1>どちらの単語が聞こえましたか</h1>","537","0","iden_exp","hana","deta","2","U","6","","6","hanaU","hanaU","hanaU06-detaA06","423","26","still discovery","hanaU"
"<h1>どちらの単語が聞こえましたか</h1>","503","1","iden_exp","hana","deta","2","U","6","","9","hanaU","hanaU","hanaU06-detaA09","425","26","still discovery","hanaU"
"<h1>どちらの単語が聞こえましたか</h1>","794","1","iden_exp","hana","deta","2","A","3","","9","hanaA","hanaU","hanaA03-detaA09","427","26","still discovery","hanaA"
"<h1>どちらの単語が聞こえましたか</h1>","538","1","iden_exp","hana","deta","2","A","6","","3","hanaA","hanaU","hanaA06-detaA03","429","26","still discovery","hanaA"
"<h1>どちらの単語が聞こえましたか</h1>","745","1","iden_exp","hana","deta","2","A","6","","9","hanaA","hanaU","hanaA06-detaA09","431","26","still discovery","hanaA"
"<h1>どちらの単語が聞こえましたか</h1>","495","0","iden_exp","hana","deta","2","A","1","","5","hanaA","hanaA","hanaA01-detaU05","433","26","still discovery","hanaA"
"<h1>どちらの単語が聞こえましたか</h1>","507","0","iden_exp","hana","deta","2","A","3","","3","hanaA","hanaA","hanaA03-detaU03","435","27","still discovery","hanaA"
"<h1>どちらの単語が聞こえましたか</h1>","645","0","iden_exp","hana","deta","2","U","7","","3","hanaU","hanaU","hanaU07-detaU03","437","27","still discovery","hanaU"
"<h1>どちらの単語が聞こえましたか</h1>","510","1","iden_exp","hana","deta","2","U","7","","11","hanaU","hanaU","hanaU07-detaA11","439","27","still discovery","hanaU"
"<h1>どちらの単語が聞こえましたか</h1>","562","1","iden_exp","hana","deta","2","U","11","","3","hanaU","hanaU","hanaU11-detaU03","441","27","still discovery","hanaU"
"<h1>どちらの単語が聞こえましたか</h1>","557","1","iden_exp","hana","deta","2","A","6","","5","hanaA","hanaA","hanaA06-detaU05","443","28","still discovery","hanaA"
"<h1>どちらの単語が聞こえましたか</h1>","550","0","iden_exp","hana","deta","2","A","9","","9","hanaA","hanaU","hanaA09-detaA09","445","28","still discovery","hanaU"
"<h1>どちらの単語が聞こえましたか</h1>","758","1","iden_exp","hana","deta","2","U","9","","6","hanaU","hanaU","hanaU09-detaA06","447","28","still discovery","hanaU"
"<h1>どちらの単語が聞こえましたか</h1>","977","1","iden_exp","hana","deta","2","A","9","","1","hanaA","hanaU","hanaA09-detaA01","449","28","still discovery","hanaA"
"<h1>どちらの単語が聞こえましたか</h1>","693","0","iden_exp","hana","deta","2","U","1","","3","hanaU","hanaU","hanaU01-detaA03","451","28","still discovery","hanaU"
"<h1>どちらの単語が聞こえましたか</h1>","666","0","iden_exp","hana","deta","2","A","1","","1","hanaA","hanaU","hanaA01-detaA01","453","28","still discovery","hanaU"
"<h1>どちらの単語が聞こえましたか</h1>","954","1","iden_exp","hana","deta","2","U","11","","1","hanaU","hanaU","hanaU11-detaA01","455","28","still discovery","hanaU"
"<h1>どちらの単語が聞こえましたか</h1>","592","1","iden_exp","hana","deta","2","U","3","","6","hanaU","hanaU","hanaU03-detaU06","457","28","still discovery","hanaU"
"<h1>どちらの単語が聞こえましたか</h1>","488","1","iden_exp","hana","deta","2","A","6","","9","hanaA","hanaA","hanaA06-detaU09","459","28","still discovery","hanaA"
"<h1>どちらの単語が聞こえましたか</h1>","582","1","iden_exp","hana","deta","2","A","3","","6","hanaA","hanaA","hanaA03-detaU06","461","28","still discovery","hanaA"
"<h1>どちらの単語が聞こえましたか</h1>","584","0","iden_exp","hana","deta","2","A","1","","6","hanaA","hanaA","hanaA01-detaU06","463","28","still discovery","hanaA"
"<h1>どちらの単語が聞こえましたか</h1>","525","0","iden_exp","hana","deta","2","U","3","","11","hanaU","hanaU","hanaU03-detaA11","465","29","still discovery","hanaU"
"<h1>どちらの単語が聞こえましたか</h1>","752","1","iden_exp","hana","deta","2","A","1","","9","hanaA","hanaA","hanaA01-detaU09","467","29","still discovery","hanaA"
"<h1>どちらの単語が聞こえましたか</h1>","543","0","iden_exp","hana","deta","2","U","9","","11","hanaU","hanaU","hanaU09-detaA11","469","29","still discovery","hanaU"
"<h1>どちらの単語が聞こえましたか</h1>","842","1","iden_exp","hana","deta","2","U","1","","5","hanaU","hanaU","hanaU01-detaU05","471","29","still discovery","hanaU"
"<h1>どちらの単語が聞こえましたか</h1>","592","1","iden_exp","hana","deta","2","A","9","","1","hanaA","hanaA","hanaA09-detaU01","473","29","still discovery","hanaA"
"<h1>どちらの単語が聞こえましたか</h1>","731","0","iden_exp","hana","deta","2","A","11","","5","hanaA","hanaA","hanaA11-detaU05","475","29","still discovery","hanaA"
"<h1>どちらの単語が聞こえましたか</h1>","745","1","iden_exp","hana","deta","2","A","6","","6","hanaA","hanaU","hanaA06-detaA06","477","29","still discovery","hanaA"
"<h1>どちらの単語が聞こえましたか</h1>","571","1","iden_exp","hana","deta","2","A","5","","11","hanaA","hanaA","hanaA05-detaU11","479","29","still discovery","hanaA"
"<h1>どちらの単語が聞こえましたか</h1>","497","0","iden_exp","hana","deta","2","U","6","","1","hanaU","hanaU","hanaU06-detaA01","481","29","still discovery","hanaU"
"<h1>どちらの単語が聞こえましたか</h1>","751","1","iden_exp","hana","deta","2","U","3","","3","hanaU","hanaU","hanaU03-detaU03","483","30","still discovery","hanaU"
"<h1>どちらの単語が聞こえましたか</h1>","553","1","iden_exp","hana","deta","2","U","6","","7","hanaU","hanaU","hanaU06-detaU07","485","30","still discovery","hanaU"
"<h1>どちらの単語が聞こえましたか</h1>","633","1","iden_exp","hana","deta","2","U","11","","7","hanaU","hanaU","hanaU11-detaA07","487","30","still discovery","hanaU"
"<h1>どちらの単語が聞こえましたか</h1>","724","0","iden_exp","hana","deta","2","A","7","","9","hanaA","hanaA","hanaA07-detaU09","489","30","still discovery","hanaA"
"<h1>どちらの単語が聞こえましたか</h1>","604","0","iden_exp","hana","deta","2","U","9","","11","hanaU","hanaU","hanaU09-detaU11","491","30","still discovery","hanaU"
"<h1>どちらの単語が聞こえましたか</h1>","587","1","iden_exp","hana","deta","2","A","11","","11","hanaA","hanaA","hanaA11-detaU11","493","30","still discovery","hanaA"
"<h1>どちらの単語が聞こえましたか</h1>","916","1","iden_exp","hana","deta","2","U","11","","5","hanaU","hanaU","hanaU11-detaA05","495","30","still discovery","hanaU"
"<h1>どちらの単語が聞こえましたか</h1>","1060","0","iden_exp","hana","deta","2","A","1","","9","hanaA","hanaU","hanaA01-detaA09","497","30","still discovery","hanaU"
"<h1>どちらの単語が聞こえましたか</h1>","670","1","iden_exp","hana","deta","2","A","11","","1","hanaA","hanaU","hanaA11-detaA01","499","30","still discovery","hanaA"
"<h1>どちらの単語が聞こえましたか</h1>","649","0","iden_exp","hana","deta","2","U","11","","6","hanaU","hanaU","hanaU11-detaU06","501","30","still discovery","hanaU"
"<h1>どちらの単語が聞こえましたか</h1>","737","1","iden_exp","hana","deta","2","U","3","","5","hanaU","hanaU","hanaU03-detaA05","503","30","still discovery","hanaU"
"<h1>どちらの単語が聞こえましたか</h1>","527","1","iden_exp","hana","deta","2","A","7","","3","hanaA","hanaA","hanaA07-detaU03","505","30","still discovery","hanaA"
"<h1>どちらの単語が聞こえましたか</h1>","635","1","iden_exp","hana","deta","2","U","3","","11","hanaU","hanaU","hanaU03-detaU11","507","30","still discovery","hanaU"
"<h1>どちらの単語が聞こえましたか</h1>","528","0","iden_exp","hana","deta","2","U","9","","9","hanaU","hanaU","hanaU09-detaA09","509","30","still discovery","hanaU"
"<h1>どちらの単語が聞こえましたか</h1>","529","1","iden_exp","hana","deta","2","A","9","","5","hanaA","hanaA","hanaA09-detaU05","511","31","still discovery","hanaA"
"<h1>どちらの単語が聞こえましたか</h1>","668","1","iden_exp","hana","deta","2","U","9","","3","hanaU","hanaU","hanaU09-detaA03","513","31","still discovery","hanaU"
"<h1>どちらの単語が聞こえましたか</h1>","636","1","iden_exp","hana","deta","2","A","7","","9","hanaA","hanaU","hanaA07-detaA09","515","31","still discovery","hanaA"
"<h1>どちらの単語が聞こえましたか</h1>","534","0","iden_exp","hana","deta","2","U","9","","3","hanaU","hanaU","hanaU09-detaU03","517","31","still discovery","hanaU"
"<h1>どちらの単語が聞こえましたか</h1>","726","0","iden_exp","hana","deta","2","U","7","","1","hanaU","hanaU","hanaU07-detaU01","519","31","still discovery","hanaU"
"<h1>どちらの単語が聞こえましたか</h1>","431","1","iden_exp","hana","deta","2","U","5","","9","hanaU","hanaU","hanaU05-detaU09","521","31","still discovery","hanaU"
"<h1>どちらの単語が聞こえましたか</h1>","636","0","iden_exp","hana","deta","2","U","1","","3","hanaU","hanaU","hanaU01-detaU03","523","32","still discovery","hanaU"
"<h1>どちらの単語が聞こえましたか</h1>","616","0","iden_exp","hana","deta","2","A","11","","6","hanaA","hanaU","hanaA11-detaA06","525","32","still discovery","hanaU"
"<h1>どちらの単語が聞こえましたか</h1>","457","0","iden_exp","hana","deta","2","U","6","","5","hanaU","hanaU","hanaU06-detaU05","527","32","still discovery","hanaU"
"<h1>どちらの単語が聞こえましたか</h1>","543","0","iden_exp","hana","deta","2","U","11","","7","hanaU","hanaU","hanaU11-detaU07","529","32","still discovery","hanaU"
"<h1>どちらの単語が聞こえましたか</h1>","792","1","iden_exp","hana","deta","2","U","6","","11","hanaU","hanaU","hanaU06-detaA11","531","32","still discovery","hanaU"
"<h1>どちらの単語が聞こえましたか</h1>","511","1","iden_exp","hana","deta","2","U","11","","9","hanaU","hanaU","hanaU11-detaU09","533","32","still discovery","hanaU"
"<h1>どちらの単語が聞こえましたか</h1>","640","1","iden_exp","hana","deta","2","A","11","","6","hanaA","hanaA","hanaA11-detaU06","535","32","still discovery","hanaA"
"<h1>どちらの単語が聞こえましたか</h1>","613","0","iden_exp","hana","deta","2","U","7","","6","hanaU","hanaU","hanaU07-detaU06","537","32","still discovery","hanaU"
"<h1>どちらの単語が聞こえましたか</h1>","609","1","iden_exp","hana","deta","2","A","1","","7","hanaA","hanaA","hanaA01-detaU07","539","32","still discovery","hanaA"
"<h1>どちらの単語が聞こえましたか</h1>","456","0","iden_exp","hana","deta","2","U","6","","11","hanaU","hanaU","hanaU06-detaU11","541","32","still discovery","hanaU"
"<h1>どちらの単語が聞こえましたか</h1>","485","1","iden_exp","hana","deta","2","U","1","","11","hanaU","hanaU","hanaU01-detaU11","543","32","still discovery","hanaU"
"<h1>どちらの単語が聞こえましたか</h1>","580","0","iden_exp","hana","deta","2","U","7","","9","hanaU","hanaU","hanaU07-detaU09","545","33","still discovery","hanaU"
"<h1>どちらの単語が聞こえましたか</h1>","540","0","iden_exp","hana","deta","2","A","3","","1","hanaA","hanaU","hanaA03-detaA01","547","33","still discovery","hanaU"
"<h1>どちらの単語が聞こえましたか</h1>","808","1","iden_exp","hana","deta","2","U","3","","1","hanaU","hanaU","hanaU03-detaA01","549","33","still discovery","hanaU"
"<h1>どちらの単語が聞こえましたか</h1>","643","1","iden_exp","hana","deta","2","U","7","","1","hanaU","hanaU","hanaU07-detaA01","551","33","still discovery","hanaU"
"<h1>どちらの単語が聞こえましたか</h1>","556","0","iden_exp","hana","deta","2","U","7","","3","hanaU","hanaU","hanaU07-detaA03","553","33","still discovery","hanaU"
"<h1>どちらの単語が聞こえましたか</h1>","488","0","iden_exp","hana","deta","2","U","7","","5","hanaU","hanaU","hanaU07-detaU05","555","33","still discovery","hanaU"
"<h1>どちらの単語が聞こえましたか</h1>","474","0","iden_exp","hana","deta","2","A","9","","7","hanaA","hanaA","hanaA09-detaU07","557","33","still discovery","hanaA"
"<h1>どちらの単語が聞こえましたか</h1>","791","1","iden_exp","hana","deta","2","A","9","","7","hanaA","hanaU","hanaA09-detaA07","559","33","still discovery","hanaA"
"<h1>どちらの単語が聞こえましたか</h1>","631","1","iden_exp","hana","deta","2","U","1","","9","hanaU","hanaU","hanaU01-detaA09","561","33","still discovery","hanaU"
"<h1>どちらの単語が聞こえましたか</h1>","574","0","iden_exp","hana","deta","2","A","5","","7","hanaA","hanaU","hanaA05-detaA07","563","33","still discovery","hanaU"
"<h1>どちらの単語が聞こえましたか</h1>","672","1","iden_exp","hana","deta","2","U","7","","9","hanaU","hanaU","hanaU07-detaA09","565","33","still discovery","hanaU"
"<h1>どちらの単語が聞こえましたか</h1>","632","1","iden_exp","hana","deta","2","A","9","","5","hanaA","hanaU","hanaA09-detaA05","567","33","still discovery","hanaA"
"<h1>どちらの単語が聞こえましたか</h1>","509","1","iden_exp","hana","deta","2","A","11","","3","hanaA","hanaA","hanaA11-detaU03","569","33","still discovery","hanaA"
"<h1>どちらの単語が聞こえましたか</h1>","743","1","iden_exp","hana","deta","2","U","5","","6","hanaU","hanaU","hanaU05-detaA06","571","33","still discovery","hanaU"
"<h1>どちらの単語が聞こえましたか</h1>","768","1","iden_exp","hana","deta","2","A","1","","6","hanaA","hanaU","hanaA01-detaA06","573","33","still discovery","hanaA"
"<h1>どちらの単語が聞こえましたか</h1>","846","0","iden_exp","hana","deta","2","U","1","","5","hanaU","hanaU","hanaU01-detaA05","575","33","still discovery","hanaU"
"<h1>どちらの単語が聞こえましたか</h1>","515","1","iden_exp","hana","deta","2","U","3","","1","hanaU","hanaU","hanaU03-detaU01","577","34","still discovery","hanaU"
"<h1>どちらの単語が聞こえましたか</h1>","474","0","iden_exp","hana","deta","2","U","6","","5","hanaU","hanaU","hanaU06-detaA05","579","34","still discovery","hanaU"
"<h1>どちらの単語が聞こえましたか</h1>","497","1","iden_exp","hana","deta","2","U","11","","11","hanaU","hanaU","hanaU11-detaA11","581","34","still discovery","hanaU"
"<h1>どちらの単語が聞こえましたか</h1>","740","1","iden_exp","hana","deta","2","U","9","","9","hanaU","hanaU","hanaU09-detaU09","583","34","still discovery","hanaU"
"<h1>どちらの単語が聞こえましたか</h1>","634","1","iden_exp","hana","deta","2","U","7","","11","hanaU","hanaU","hanaU07-detaU11","585","34","still discovery","hanaU"
"<h1>どちらの単語が聞こえましたか</h1>","525","1","iden_exp","hana","deta","2","A","7","","5","hanaA","hanaA","hanaA07-detaU05","587","34","still discovery","hanaA"
"<h1>どちらの単語が聞こえましたか</h1>","686","0","iden_exp","hana","deta","2","A","11","","5","hanaA","hanaU","hanaA11-detaA05","589","34","still discovery","hanaU"
"<h1>どちらの単語が聞こえましたか</h1>","960","1","iden_exp","hana","deta","2","U","5","","11","hanaU","hanaU","hanaU05-detaA11","591","34","still discovery","hanaU"
"<h1>どちらの単語が聞こえましたか</h1>","508","0","iden_exp","hana","deta","2","U","6","","6","hanaU","hanaU","hanaU06-detaU06","593","34","still discovery","hanaU"
"<h1>どちらの単語が聞こえましたか</h1>","510","0","iden_exp","hana","deta","2","U","9","","1","hanaU","hanaU","hanaU09-detaU01","595","34","still discovery","hanaU"
"<h1>どちらの単語が聞こえましたか</h1>","517","1","iden_exp","hana","deta","2","A","7","","7","hanaA","hanaU","hanaA07-detaA07","597","34","still discovery","hanaA"
"<h1>どちらの単語が聞こえましたか</h1>","849","1","iden_exp","hana","deta","2","A","11","","1","hanaA","hanaA","hanaA11-detaU01","599","34","still discovery","hanaA"
"<h1>どちらの単語が聞こえましたか</h1>","567","0","iden_exp","hana","deta","2","A","5","","3","hanaA","hanaU","hanaA05-detaA03","601","34","still discovery","hanaU"
"<h1>どちらの単語が聞こえましたか</h1>","691","0","iden_exp","hana","deta","2","A","9","","6","hanaA","hanaA","hanaA09-detaU06","603","34","still discovery","hanaA"
"<h1>どちらの単語が聞こえましたか</h1>","638","1","iden_exp","hana","deta","2","U","9","","1","hanaU","hanaU","hanaU09-detaA01","605","35","still discovery","hanaU"
"<h1>どちらの単語が聞こえましたか</h1>","913","0","iden_exp","hana","deta","2","U","3","","9","hanaU","hanaU","hanaU03-detaU09","607","35","still discovery","hanaU"
"<h1>どちらの単語が聞こえましたか</h1>","558","0","iden_exp","hana","deta","2","A","6","","7","hanaA","hanaU","hanaA06-detaA07","609","35","still discovery","hanaU"
"<h1>どちらの単語が聞こえましたか</h1>","589","1","iden_exp","hana","deta","2","A","3","","5","hanaA","hanaA","hanaA03-detaU05","611","35","still discovery","hanaA"
"<h1>どちらの単語が聞こえましたか</h1>","586","0","iden_exp","hana","deta","2","A","3","","9","hanaA","hanaA","hanaA03-detaU09","613","35","still discovery","hanaA"
"<h1>どちらの単語が聞こえましたか</h1>","932","0","iden_exp","hana","deta","2","A","3","","11","hanaA","hanaU","hanaA03-detaA11","615","35","still discovery","hanaU"
"<h1>どちらの単語が聞こえましたか</h1>","738","0","iden_exp","hana","deta","2","U","5","","9","hanaU","hanaU","hanaU05-detaA09","617","35","still discovery","hanaU"
"<h1>どちらの単語が聞こえましたか</h1>","684","0","iden_exp","hana","deta","2","U","1","","11","hanaU","hanaU","hanaU01-detaA11","619","35","still discovery","hanaU"
"<h1>どちらの単語が聞こえましたか</h1>","573","1","iden_exp","hana","deta","2","A","5","","1","hanaA","hanaU","hanaA05-detaA01","621","35","still discovery","hanaA"
"<h1>どちらの単語が聞こえましたか</h1>","632","1","iden_exp","hana","deta","2","A","11","","7","hanaA","hanaU","hanaA11-detaA07","623","35","still discovery","hanaA"
"<h1>どちらの単語が聞こえましたか</h1>","979","1","iden_exp","hana","deta","2","U","3","","7","hanaU","hanaU","hanaU03-detaA07","625","35","still discovery","hanaU"
"<h1>どちらの単語が聞こえましたか</h1>","536","0","iden_exp","hana","deta","2","U","7","","7","hanaU","hanaU","hanaU07-detaU07","627","35","still discovery","hanaU"
"<h1>どちらの単語が聞こえましたか</h1>","528","1","iden_exp","hana","deta","2","A","6","","3","hanaA","hanaA","hanaA06-detaU03","629","36","still discovery","hanaA"
"<h1>どちらの単語が聞こえましたか</h1>","817","1","iden_exp","hana","deta","2","A","5","","11","hanaA","hanaU","hanaA05-detaA11","631","36","still discovery","hanaA"
"<h1>どちらの単語が聞こえましたか</h1>","593","1","iden_exp","hana","deta","2","U","1","","6","hanaU","hanaU","hanaU01-detaU06","633","36","still discovery","hanaU"
"<h1>どちらの単語が聞こえましたか</h1>","548","0","iden_exp","hana","deta","2","A","6","","11","hanaA","hanaU","hanaA06-detaA11","635","36","still discovery","hanaU"
"<h1>どちらの単語が聞こえましたか</h1>","590","0","iden_exp","hana","deta","2","A","6","","5","hanaA","hanaU","hanaA06-detaA05","637","36","still discovery","hanaU"
"<h1>どちらの単語が聞こえましたか</h1>","567","0","iden_exp","hana","deta","2","U","5","","7","hanaU","hanaU","hanaU05-detaU07","639","36","still discovery","hanaU"
"<h1>どちらの単語が聞こえましたか</h1>","902","1","iden_exp","hana","deta","2","U","5","","1","hanaU","hanaU","hanaU05-detaA01","641","36","still discovery","hanaU"
"<h1>どちらの単語が聞こえましたか</h1>","836","0","iden_exp","hana","deta","2","A","3","","6","hanaA","hanaU","hanaA03-detaA06","643","37","still discovery","hanaU"
"<h1>どちらの単語が聞こえましたか</h1>","530","1","iden_exp","hana","deta","2","U","3","","9","hanaU","hanaU","hanaU03-detaA09","645","37","still discovery","hanaU"
"<h1>どちらの単語が聞こえましたか</h1>","540","1","iden_exp","hana","deta","2","U","5","","6","hanaU","hanaU","hanaU05-detaU06","647","37","still discovery","hanaU"
"<h1>どちらの単語が聞こえましたか</h1>","438","0","iden_exp","hana","deta","2","U","7","","5","hanaU","hanaU","hanaU07-detaA05","649","37","still discovery","hanaU"
"<h1>どちらの単語が聞こえましたか</h1>","705","0","iden_exp","hana","deta","2","A","9","","6","hanaA","hanaU","hanaA09-detaA06","651","37","still discovery","hanaU"
"<h1>どちらの単語が聞こえましたか</h1>","627","0","iden_exp","hana","deta","2","A","5","","9","hanaA","hanaU","hanaA05-detaA09","653","37","still discovery","hanaU"
"<h1>どちらの単語が聞こえましたか</h1>","745","1","iden_exp","hana","deta","2","A","1","","5","hanaA","hanaU","hanaA01-detaA05","655","37","still discovery","hanaA"
"<h1>どちらの単語が聞こえましたか</h1>","511","0","iden_exp","hana","deta","2","A","5","","7","hanaA","hanaA","hanaA05-detaU07","657","37","still discovery","hanaA"
"<h1>どちらの単語が聞こえましたか</h1>","589","0","iden_exp","hana","deta","2","A","7","","3","hanaA","hanaU","hanaA07-detaA03","659","37","still discovery","hanaU"
"<h1>どちらの単語が聞こえましたか</h1>","509","1","iden_exp","hana","deta","2","A","3","","3","hanaA","hanaU","hanaA03-detaA03","661","37","still discovery","hanaA"
"<h1>どちらの単語が聞こえましたか</h1>","544","0","iden_exp","hana","deta","2","U","11","","3","hanaU","hanaU","hanaU11-detaA03","663","37","still discovery","hanaU"
"<h1>どちらの単語が聞こえましたか</h1>","835","1","iden_exp","hana","deta","2","A","11","","7","hanaA","hanaA","hanaA11-detaU07","665","37","still discovery","hanaA"
"<h1>どちらの単語が聞こえましたか</h1>","617","1","iden_exp","hana","deta","2","A","7","","7","hanaA","hanaA","hanaA07-detaU07","667","38","still discovery","hanaA"
"<h1>どちらの単語が聞こえましたか</h1>","759","1","iden_exp","hana","deta","2","A","1","","3","hanaA","hanaA","hanaA01-detaU03","669","38","still discovery","hanaA"
"<h1>どちらの単語が聞こえましたか</h1>","681","1","iden_exp","hana","deta","2","A","5","","6","hanaA","hanaU","hanaA05-detaA06","671","38","still discovery","hanaA"
"<h1>どちらの単語が聞こえましたか</h1>","522","0","iden_exp","hana","deta","2","A","5","","9","hanaA","hanaA","hanaA05-detaU09","673","38","still discovery","hanaA"
"<h1>どちらの単語が聞こえましたか</h1>","803","1","iden_exp","hana","deta","2","A","6","","6","hanaA","hanaA","hanaA06-detaU06","675","38","still discovery","hanaA"
"<h1>どちらの単語が聞こえましたか</h1>","608","0","iden_exp","hana","deta","2","U","6","","7","hanaU","hanaU","hanaU06-detaA07","677","38","still discovery","hanaU"
"<h1>どちらの単語が聞こえましたか</h1>","594","0","iden_exp","hana","deta","2","A","5","","6","hanaA","hanaA","hanaA05-detaU06","679","38","still discovery","hanaA"
"<h1>どちらの単語が聞こえましたか</h1>","561","0","iden_exp","hana","deta","2","U","9","","7","hanaU","hanaU","hanaU09-detaA07","681","38","still discovery","hanaU"
"<h1>どちらの単語が聞こえましたか</h1>","739","0","iden_exp","hana","deta","2","A","3","","11","hanaA","hanaA","hanaA03-detaU11","683","38","still discovery","hanaA"
"<h1>どちらの単語が聞こえましたか</h1>","681","0","iden_exp","hana","deta","2","U","5","","5","hanaU","hanaU","hanaU05-detaU05","685","38","still discovery","hanaU"
"<h1>どちらの単語が聞こえましたか</h1>","475","0","iden_exp","hana","deta","2","U","1","","7","hanaU","hanaU","hanaU01-detaU07","687","38","still discovery","hanaU"
"<h1>どちらの単語が聞こえましたか</h1>","638","1","iden_exp","hana","deta","2","A","5","","1","hanaA","hanaA","hanaA05-detaU01","689","38","still discovery","hanaA"
"<h1>どちらの単語が聞こえましたか</h1>","518","0","iden_exp","hana","deta","2","U","11","","5","hanaU","hanaU","hanaU11-detaU05","691","38","still discovery","hanaU"
"<h1>どちらの単語が聞こえましたか</h1>","853","0","iden_exp","hana","deta","2","U","3","","7","hanaU","hanaU","hanaU03-detaU07","693","38","still discovery","hanaU"
"<h1>どちらの単語が聞こえましたか</h1>","574","0","iden_exp","hana","deta","2","U","6","","9","hanaU","hanaU","hanaU06-detaU09","695","38","still discovery","hanaU"
"<h1>どちらの単語が聞こえましたか</h1>","604","0","iden_exp","hana","deta","2","A","9","","3","hanaA","hanaU","hanaA09-detaA03","697","38","still discovery","hanaU"
"<h1>どちらの単語が聞こえましたか</h1>","845","0","iden_exp","hana","deta","2","A","1","","1","hanaA","hanaA","hanaA01-detaU01","699","39","still discovery","hanaA"
"<h1>どちらの単語が聞こえましたか</h1>","971","1","iden_exp","hana","deta","2","A","11","","11","hanaA","hanaU","hanaA11-detaA11","701","39","still discovery","hanaA"
"<h1>どちらの単語が聞こえましたか</h1>","678","0","iden_exp","hana","deta","2","U","11","","11","hanaU","hanaU","hanaU11-detaU11","703","39","still discovery","hanaU"
"<h1>どちらの単語が聞こえましたか</h1>","604","1","iden_exp","hana","deta","2","A","7","","1","hanaA","hanaU","hanaA07-detaA01","705","39","still discovery","hanaA"
"<h1>どちらの単語が聞こえましたか</h1>","741","1","iden_exp","hana","deta","2","U","6","","3","hanaU","hanaU","hanaU06-detaA03","707","39","still discovery","hanaU"
"<h1>どちらの単語が聞こえましたか</h1>","933","1","iden_exp","hana","deta","2","A","6","","1","hanaA","hanaA","hanaA06-detaU01","709","39","still discovery","hanaA"
"<h1>どちらの単語が聞こえましたか</h1>","626","0","iden_exp","hana","deta","2","A","7","","11","hanaA","hanaU","hanaA07-detaA11","711","39","still discovery","hanaU"
"<h1>どちらの単語が聞こえましたか</h1>","884","1","iden_exp","hana","deta","2","A","3","","7","hanaA","hanaU","hanaA03-detaA07","713","39","still discovery","hanaA"
"<h1>どちらの単語が聞こえましたか</h1>","960","1","iden_exp","hana","deta","2","A","11","","9","hanaA","hanaA","hanaA11-detaU09","715","39","still discovery","hanaA"
"<h1>どちらの単語が聞こえましたか</h1>","566","1","iden_exp","hana","deta","2","A","1","","3","hanaA","hanaU","hanaA01-detaA03","717","39","still discovery","hanaA"
"<h1>どちらの単語が聞こえましたか</h1>","520","0","iden_exp","hana","deta","2","U","1","","7","hanaU","hanaU","hanaU01-detaA07","719","39","still discovery","hanaU"
"<h1>どちらの単語が聞こえましたか</h1>","537","0","iden_exp","hana","deta","2","A","11","","9","hanaA","hanaU","hanaA11-detaA09","721","39","still discovery","hanaU"
"<h1>どちらの単語が聞こえましたか</h1>","1184","0","iden_exp","hana","deta","2","A","7","","6","hanaA","hanaU","hanaA07-detaA06","723","39","still discovery","hanaU"
"<h1>どちらの単語が聞こえましたか</h1>","593","1","iden_exp","hana","deta","2","U","3","","3","hanaU","hanaU","hanaU03-detaA03","725","39","still discovery","hanaU"
"<h1>どちらの単語が聞こえましたか</h1>","591","0","iden_exp","hana","deta","2","A","6","","7","hanaA","hanaA","hanaA06-detaU07","727","39","still discovery","hanaA"
"<h1>どちらの単語が聞こえましたか</h1>","594","0","iden_exp","hana","deta","2","U","1","","1","hanaU","hanaU","hanaU01-detaA01","729","40","still discovery","hanaU"
"<h1>どちらの単語が聞こえましたか</h1>","698","0","iden_exp","hana","deta","2","A","3","","7","hanaA","hanaA","hanaA03-detaU07","731","40","still discovery","hanaA"
"<h1>どちらの単語が聞こえましたか</h1>","821","1","iden_exp","hana","deta","2","U","11","","9","hanaU","hanaU","hanaU11-detaA09","733","40","still discovery","hanaU"
"<h1>どちらの単語が聞こえましたか</h1>","571","0","iden_exp","hana","deta","2","U","5","","11","hanaU","hanaU","hanaU05-detaU11","735","40","still discovery","hanaU"
"<h1>どちらの単語が聞こえましたか</h1>","545","0","iden_exp","hana","deta","2","U","5","","5","hanaU","hanaU","hanaU05-detaA05","737","40","still discovery","hanaU"
"<h1>どちらの単語が聞こえましたか</h1>","597","0","iden_exp","hana","deta","2","A","7","","11","hanaA","hanaA","hanaA07-detaU11","739","40","still discovery","hanaA"
"<h1>どちらの単語が聞こえましたか</h1>","625","1","iden_exp","hana","deta","2","U","5","","1","hanaU","hanaU","hanaU05-detaU01","741","40","still discovery","hanaU"
"<h1>どちらの単語が聞こえましたか</h1>","1197","1","iden_exp","hana","deta","2","U","5","","3","hanaU","hanaU","hanaU05-detaU03","743","40","still discovery","hanaU"
"<h1>どちらの単語が聞こえましたか</h1>","819","1","iden_exp","hana","deta","2","A","7","","6","hanaA","hanaA","hanaA07-detaU06","745","40","still discovery","hanaA"
"<h1>どちらの単語が聞こえましたか</h1>","763","0","iden_exp","hana","deta","2","U","6","","1","hanaU","hanaU","hanaU06-detaU01","747","40","still discovery","hanaU"
"<h1>どちらの単語が聞こえましたか</h1>","518","0","iden_exp","hana","deta","2","A","6","","11","hanaA","hanaA","hanaA06-detaU11","749","40","still discovery","hanaA"
"<h1>どちらの単語が聞こえましたか</h1>","602","1","iden_exp","hana","deta","2","A","9","","11","hanaA","hanaU","hanaA09-detaA11","751","40","still discovery","hanaA"
"<h1>どちらの単語が聞こえましたか</h1>","580","0","iden_exp","hana","deta","2","U","1","","6","hanaU","hanaU","hanaU01-detaA06","753","40","still discovery","hanaU"
"<h1>どちらの単語が聞こえましたか</h1>","497","1","iden_exp","hana","deta","2","U","5","","3","hanaU","hanaU","hanaU05-detaA03","755","40","still discovery","hanaU"
"<h1>どちらの単語が聞こえましたか</h1>","784","1","iden_exp","hana","deta","2","A","1","","11","hanaA","hanaU","hanaA01-detaA11","757","41","still discovery","hanaA"
"<h1>どちらの単語が聞こえましたか</h1>","744","0","iden_exp","hana","deta","2","U","7","","6","hanaU","hanaU","hanaU07-detaA06","759","41","still discovery","hanaU"
"<h1>どちらの単語が聞こえましたか</h1>","469","0","iden_exp","hana","deta","2","A","5","","3","hanaA","hanaA","hanaA05-detaU03","761","41","still discovery","hanaA"
"<h1>どちらの単語が聞こえましたか</h1>","737","1","iden_exp","hana","deta","2","A","7","","5","hanaA","hanaU","hanaA07-detaA05","763","41","still discovery","hanaA"
"<h1>どちらの単語が聞こえましたか</h1>","829","0","iden_exp","hana","deta","2","U","1","","1","hanaU","hanaU","hanaU01-detaU01","765","41","still discovery","hanaU"
"<h1>どちらの単語が聞こえましたか</h1>","796","1","iden_exp","hana","deta","2","U","9","","5","hanaU","hanaU","hanaU09-detaA05","767","41","still discovery","hanaU"
"<h1>どちらの単語が聞こえましたか</h1>","535","1","iden_exp","hana","deta","2","U","9","","6","hanaU","hanaU","hanaU09-detaU06","769","41","still discovery","hanaU"
"<h1>どちらの単語が聞こえましたか</h1>","617","1","iden_exp","hana","deta","2","A","6","","1","hanaA","hanaU","hanaA06-detaA01","771","41","still discovery","hanaA"
"<h1>どちらの単語が聞こえましたか</h1>","593","1","iden_exp","hana","deta","2","A","5","","5","hanaA","hanaA","hanaA05-detaU05","773","41","still discovery","hanaA"
"<h1>どちらの単語が聞こえましたか</h1>","561","1","iden_exp","hana","deta","2","U","9","","7","hanaU","hanaU","hanaU09-detaU07","775","41","still discovery","hanaU"
"<h1>どちらの単語が聞こえましたか</h1>","731","1","iden_exp","hana","deta","2","U","5","","7","hanaU","hanaU","hanaU05-detaA07","777","41","still discovery","hanaU"
"<h1>どちらの単語が聞こえましたか</h1>","871","1","iden_exp","hana","deta","2","A","9","","11","hanaA","hanaA","hanaA09-detaU11","779","41","still discovery","hanaA"
"<h1>どちらの単語が聞こえましたか</h1>","725","1","iden_exp","hana","deta","2","A","1","","7","hanaA","hanaU","hanaA01-detaA07","781","41","still discovery","hanaA"
"<h1>どちらの単語が聞こえましたか</h1>","478","0","iden_exp","hana","deta","2","U","9","","5","hanaU","hanaU","hanaU09-detaU05","783","41","still discovery","hanaU"
"<h1>どちらの単語が聞こえましたか</h1>","475","0","iden_exp","hana","deta","2","A","7","","1","hanaA","hanaA","hanaA07-detaU01","785","41","still discovery","hanaA"
"<h1>どちらの単語が聞こえましたか</h1>","574","0","iden_exp","hana","deta","2","A","1","","11","hanaA","hanaA","hanaA01-detaU11","787","42","still discovery","hanaA"
"<h1>どちらの単語が聞こえましたか</h1>","733","1","iden_exp","hana","deta","2","A","9","","3","hanaA","hanaA","hanaA09-detaU03","789","42","still discovery","hanaA"
"<h1>どちらの単語が聞こえましたか</h1>","584","0","iden_exp","hana","deta","2","A","5","","5","hanaA","hanaU","hanaA05-detaA05","791","42","still discovery","hanaU"
"<h1>どちらの単語が聞こえましたか</h1>","922","1","iden_exp","hana","deta","2","A","3","","5","hanaA","hanaU","hanaA03-detaA05","793","42","still discovery","hanaA"
"<h1>どちらの単語が聞こえましたか</h1>","705","0","iden_exp","hana","deta","2","U","7","","7","hanaU","hanaU","hanaU07-detaA07","795","42","still discovery","hanaU"
"<h1>どちらの単語が聞こえましたか</h1>","530","1","iden_exp","hana","deta","2","U","1","","9","hanaU","hanaU","hanaU01-detaU09","797","42","still discovery","hanaU"
"<h1>どちらの単語が聞こえましたか</h1>","528","0","iden_exp","hana","deta","2","U","3","","6","hanaU","hanaU","hanaU03-detaA06","799","42","still discovery","hanaU"
"<h1>どちらの単語が聞こえましたか</h1>","728","1","iden_exp","hana","deta","2","A","11","","3","hanaA","hanaU","hanaA11-detaA03","801","42","still discovery","hanaA"
"<h1>どちらの単語が聞こえましたか</h1>","583","0","iden_exp","hana","deta","2","A","3","","1","hanaA","hanaA","hanaA03-detaU01","803","42","still discovery","hanaA"
"<h1>どちらの単語が聞こえましたか</h1>","502","1","iden_exp","hana","deta","2","U","6","","3","hanaU","hanaU","hanaU06-detaU03","805","42","still discovery","hanaU"
