"stimulus","rt","response","phase","word","carrier","block","wordAccent","wordAccentStep","carrierAccent","carrierAccentStep","option_0","option_1","sound","trial_index","time_elapsed","participantID","answer"
"<h1>どちらの単語が聞こえましたか</h1>","497","1","practice","hana","deta","2","A","1","","1","hanaA","hanaU","hanaA01-detaA01","4","4","whale","hanaU"
"<h1>どちらの単語が聞こえましたか</h1>","512","0","practice","hana","deta","2","A","11","","11","hanaA","hanaU","hanaA11-detaA11","6","4","whale","hanaA"
"<h1>どちらの単語が聞こえましたか</h1>","893","1","practice","hana","deta","2","U","1","","1","hanaA","hanaU","hanaU01-detaU01","8","5","whale","hanaU"
"<h1>どちらの単語が聞こえましたか</h1>","906","1","practice","hana","deta","2","U","11","","11","hanaA","hanaU","hanaU11-detaU11","10","5","whale","hanaU"
"<h1>どちらの単語が聞こえましたか</h1>","603","0","practice","hana","deta","2","A","1","","1","hanaA","hanaU","hanaA01-detaU01","13","5","whale","hanaU"
"<h1>どちらの単語が聞こえましたか</h1>","581","1","practice","hana","deta","2","A","11","","11","hanaA","hanaU","hanaA11-detaU11","15","5","whale","hanaA"
"<h1>どちらの単語が聞こえましたか</h1>","745","1","practice","hana","deta","2","U","1","","1","hanaA","hanaU","hanaU01-detaA01","17","5","whale","hanaA"
"<h1>どちらの単語が聞こえましたか</h1>","987","1","practice","hana","deta","2","U","11","","11","hanaA","hanaU","hanaU11-detaA11","19","6","whale","hanaA"
"<h1>どちらの単語が聞こえましたか</h1>","686","0","iden_exp","hana","deta","1","U","9","1","","hanaU","hanaU","hanaU09-detaA01","22","6","whale","hanaU"
"<h1>どちらの単語が聞こえましたか</h1>","958","1","iden_exp","hana","deta","1","U","11","6","","hanaU","hanaU","hanaU11-detaU06","24","7","whale","hanaU"
"<h1>どちらの単語が聞こえましたか</h1>","587","0","iden_exp","hana","deta","1","U","9","1","","hanaU","hanaU","hanaU09-detaU01","26","7","whale","hanaU"
"<h1>どちらの単語が聞こえましたか</h1>","585","0","iden_exp","hana","deta","1","U","3","6","","hanaU","hanaU","hanaU03-detaA06","28","7","whale","hanaU"
"<h1>どちらの単語が聞こえましたか</h1>","942","1","iden_exp","hana","deta","1","U","7","3","","hanaU","hanaU","hanaU07-detaU03","30","7","whale","hanaU"
"<h1>どちらの単語が聞こえましたか</h1>","510","0","iden_exp","hana","deta","1","U","6","7","","hanaU","hanaU","hanaU06-detaA07","32","8","whale","hanaU"
"<h1>どちらの単語が聞こえましたか</h1>","555","0","iden_exp","hana","deta","1","A","5","7","","hanaA","hanaA","hanaA05-detaU07","34","8","whale","hanaA"
"<h1>どちらの単語が聞こえましたか</h1>","871","0","iden_exp","hana","deta","1","A","3","5","","hanaA","hanaA","hanaA03-detaU05","36","8","whale","hanaA"
"<h1>どちらの単語が聞こえましたか</h1>","648","0","iden_exp","hana","deta","1","A","3","1","","hanaA","hanaA","hanaA03-detaU01","38","8","whale","hanaA"
"<h1>どちらの単語が聞こえましたか</h1>","636","0","iden_exp","hana","deta","1","A","6","11","","hanaA","hanaU","hanaA06-detaA11","40","9","whale","hanaA"
"<h1>どちらの単語が聞こえましたか</h1>","479","1","iden_exp","hana","deta","1","U","3","3","","hanaU","hanaU","hanaU03-detaU03","42","9","whale","hanaU"
"<h1>どちらの単語が聞こえましたか</h1>","601","1","iden_exp","hana","deta","1","U","9","5","","hanaU","hanaU","hanaU09-detaA05","44","9","whale","hanaU"
"<h1>どちらの単語が聞こえましたか</h1>","584","0","iden_exp","hana","deta","1","U","7","1","","hanaU","hanaU","hanaU07-detaA01","46","10","whale","hanaU"
"<h1>どちらの単語が聞こえましたか</h1>","688","1","iden_exp","hana","deta","1","A","11","1","","hanaA","hanaU","hanaA11-detaA01","48","10","whale","hanaU"
"<h1>どちらの単語が聞こえましたか</h1>","504","0","iden_exp","hana","deta","1","U","6","3","","hanaU","hanaU","hanaU06-detaU03","50","10","whale","hanaU"
"<h1>どちらの単語が聞こえましたか</h1>","622","0","iden_exp","hana","deta","1","U","3","5","","hanaU","hanaU","hanaU03-detaU05","52","10","whale","hanaU"
"<h1>どちらの単語が聞こえましたか</h1>","607","1","iden_exp","hana","deta","1","U","11","1","","hanaU","hanaU","hanaU11-detaA01","54","10","whale","hanaU"
"<h1>どちらの単語が聞こえましたか</h1>","1037","1","iden_exp","hana","deta","1","A","3","1","","hanaA","hanaU","hanaA03-detaA01","56","10","whale","hanaU"
"<h1>どちらの単語が聞こえましたか</h1>","622","0","iden_exp","hana","deta","1","A","7","1","","hanaA","hanaU","hanaA07-detaA01","58","11","whale","hanaA"
"<h1>どちらの単語が聞こえましたか</h1>","749","1","iden_exp","hana","deta","1","U","5","9","","hanaU","hanaU","hanaU05-detaU09","60","11","whale","hanaU"
"<h1>どちらの単語が聞こえましたか</h1>","495","0","iden_exp","hana","deta","1","U","1","3","","hanaU","hanaU","hanaU01-detaU03","62","11","whale","hanaU"
"<h1>どちらの単語が聞こえましたか</h1>","746","1","iden_exp","hana","deta","1","A","5","11","","hanaA","hanaA","hanaA05-detaU11","64","11","whale","hanaA"
"<h1>どちらの単語が聞こえましたか</h1>","710","0","iden_exp","hana","deta","1","U","7","11","","hanaU","hanaU","hanaU07-detaU11","66","11","whale","hanaU"
"<h1>どちらの単語が聞こえましたか</h1>","1042","0","iden_exp","hana","deta","1","A","7","3","","hanaA","hanaA","hanaA07-detaU03","68","11","whale","hanaA"
"<h1>どちらの単語が聞こえましたか</h1>","464","1","iden_exp","hana","deta","1","A","11","11","","hanaA","hanaU","hanaA11-detaA11","70","13","whale","hanaU"
"<h1>どちらの単語が聞こえましたか</h1>","946","1","iden_exp","hana","deta","1","U","6","11","","hanaU","hanaU","hanaU06-detaU11","72","13","whale","hanaU"
"<h1>どちらの単語が聞こえましたか</h1>","594","1","iden_exp","hana","deta","1","A","6","5","","hanaA","hanaA","hanaA06-detaU05","74","13","whale","hanaA"
"<h1>どちらの単語が聞こえましたか</h1>","450","1","iden_exp","hana","deta","1","U","11","6","","hanaU","hanaU","hanaU11-detaA06","76","13","whale","hanaU"
"<h1>どちらの単語が聞こえましたか</h1>","611","0","iden_exp","hana","deta","1","A","6","6","","hanaA","hanaA","hanaA06-detaU06","78","13","whale","hanaA"
"<h1>どちらの単語が聞こえましたか</h1>","897","0","iden_exp","hana","deta","1","A","11","11","","hanaA","hanaA","hanaA11-detaU11","80","14","whale","hanaA"
"<h1>どちらの単語が聞こえましたか</h1>","495","0","iden_exp","hana","deta","1","A","7","9","","hanaA","hanaU","hanaA07-detaA09","82","14","whale","hanaA"
"<h1>どちらの単語が聞こえましたか</h1>","645","0","iden_exp","hana","deta","1","U","5","1","","hanaU","hanaU","hanaU05-detaU01","84","14","whale","hanaU"
"<h1>どちらの単語が聞こえましたか</h1>","587","0","iden_exp","hana","deta","1","A","1","3","","hanaA","hanaA","hanaA01-detaU03","86","14","whale","hanaA"
"<h1>どちらの単語が聞こえましたか</h1>","587","1","iden_exp","hana","deta","1","A","6","9","","hanaA","hanaA","hanaA06-detaU09","88","14","whale","hanaA"
"<h1>どちらの単語が聞こえましたか</h1>","502","1","iden_exp","hana","deta","1","A","6","11","","hanaA","hanaA","hanaA06-detaU11","90","14","whale","hanaA"
"<h1>どちらの単語が聞こえましたか</h1>","738","0","iden_exp","hana","deta","1","U","9","6","","hanaU","hanaU","hanaU09-detaA06","92","14","whale","hanaU"
"<h1>どちらの単語が聞こえましたか</h1>","601","0","iden_exp","hana","deta","1","U","6","6","","hanaU","hanaU","hanaU06-detaA06","94","14","whale","hanaU"
"<h1>どちらの単語が聞こえましたか</h1>","614","0","iden_exp","hana","deta","1","A","7","6","","hanaA","hanaA","hanaA07-detaU06","96","14","whale","hanaA"
"<h1>どちらの単語が聞こえましたか</h1>","568","1","iden_exp","hana","deta","1","A","11","1","","hanaA","hanaA","hanaA11-detaU01","98","14","whale","hanaA"
"<h1>どちらの単語が聞こえましたか</h1>","484","1","iden_exp","hana","deta","1","A","5","6","","hanaA","hanaA","hanaA05-detaU06","100","14","whale","hanaA"
"<h1>どちらの単語が聞こえましたか</h1>","913","0","iden_exp","hana","deta","1","A","6","3","","hanaA","hanaU","hanaA06-detaA03","102","15","whale","hanaA"
"<h1>どちらの単語が聞こえましたか</h1>","818","0","iden_exp","hana","deta","1","U","6","9","","hanaU","hanaU","hanaU06-detaA09","104","15","whale","hanaU"
"<h1>どちらの単語が聞こえましたか</h1>","685","0","iden_exp","hana","deta","1","U","6","1","","hanaU","hanaU","hanaU06-detaA01","106","15","whale","hanaU"
"<h1>どちらの単語が聞こえましたか</h1>","1181","0","iden_exp","hana","deta","1","U","11","7","","hanaU","hanaU","hanaU11-detaA07","108","15","whale","hanaU"
"<h1>どちらの単語が聞こえましたか</h1>","812","0","iden_exp","hana","deta","1","A","6","7","","hanaA","hanaU","hanaA06-detaA07","110","15","whale","hanaA"
"<h1>どちらの単語が聞こえましたか</h1>","667","1","iden_exp","hana","deta","1","A","1","5","","hanaA","hanaA","hanaA01-detaU05","112","15","whale","hanaA"
"<h1>どちらの単語が聞こえましたか</h1>","451","0","iden_exp","hana","deta","1","U","1","5","","hanaU","hanaU","hanaU01-detaA05","114","15","whale","hanaU"
"<h1>どちらの単語が聞こえましたか</h1>","711","0","iden_exp","hana","deta","1","A","1","11","","hanaA","hanaA","hanaA01-detaU11","116","15","whale","hanaA"
"<h1>どちらの単語が聞こえましたか</h1>","499","1","iden_exp","hana","deta","1","U","1","7","","hanaU","hanaU","hanaU01-detaA07","118","15","whale","hanaU"
"<h1>どちらの単語が聞こえましたか</h1>","504","0","iden_exp","hana","deta","1","A","9","11","","hanaA","hanaU","hanaA09-detaA11","120","15","whale","hanaA"
"<h1>どちらの単語が聞こえましたか</h1>","804","1","iden_exp","","","1","","","","","","","","122","15","whale",""
"<h1>どちらの単語が聞こえましたか</h1>","527","1","iden_exp","hana","deta","1","U","5","1","","hanaU","hanaU","hanaU05-detaA01","124","15","whale","hanaU"
"<h1>どちらの単語が聞こえましたか</h1>","808","0","iden_exp","hana","deta","1","U","7","1","","hanaU","hanaU","hanaU07-detaU01","126","15","whale","hanaU"
"<h1>どちらの単語が聞こえましたか</h1>","588","1","iden_exp","hana","deta","1","U","11","11","","hanaU","hanaU","hanaU11-detaU11","128","15","whale","hanaU"
"<h1>どちらの単語が聞こえましたか</h1>","534","0","iden_exp","hana","deta","1","A","3","6","","hanaA","hanaA","hanaA03-detaU06","130","16","whale","hanaA"
"<h1>どちらの単語が聞こえましたか</h1>","603","1","iden_exp","hana","deta","1","A","3","7","","hanaA","hanaA","hanaA03-detaU07","132","16","whale","hanaA"
"<h1>どちらの単語が聞こえましたか</h1>","980","1","iden_exp","hana","deta","1","A","9","7","","hanaA","hanaU","hanaA09-detaA07","134","16","whale","hanaU"
"<h1>どちらの単語が聞こえましたか</h1>","755","0","iden_exp","hana","deta","1","A","3","9","","hanaA","hanaU","hanaA03-detaA09","136","16","whale","hanaA"
"<h1>どちらの単語が聞こえましたか</h1>","515","0","iden_exp","hana","deta","1","U","9","7","","hanaU","hanaU","hanaU09-detaU07","138","16","whale","hanaU"
"<h1>どちらの単語が聞こえましたか</h1>","609","1","iden_exp","hana","deta","1","A","9","6","","hanaA","hanaA","hanaA09-detaU06","140","16","whale","hanaA"
"<h1>どちらの単語が聞こえましたか</h1>","595","1","iden_exp","hana","deta","1","A","7","7","","hanaA","hanaA","hanaA07-detaU07","142","16","whale","hanaA"
"<h1>どちらの単語が聞こえましたか</h1>","482","1","iden_exp","hana","deta","1","U","9","11","","hanaU","hanaU","hanaU09-detaU11","144","16","whale","hanaU"
"<h1>どちらの単語が聞こえましたか</h1>","640","1","iden_exp","hana","deta","1","U","7","5","","hanaU","hanaU","hanaU07-detaU05","146","16","whale","hanaU"
"<h1>どちらの単語が聞こえましたか</h1>","777","1","iden_exp","hana","deta","1","A","9","1","","hanaA","hanaU","hanaA09-detaA01","148","16","whale","hanaU"
"<h1>どちらの単語が聞こえましたか</h1>","609","1","iden_exp","hana","deta","1","A","11","5","","hanaA","hanaU","hanaA11-detaA05","150","16","whale","hanaU"
"<h1>どちらの単語が聞こえましたか</h1>","672","1","iden_exp","hana","deta","1","A","3","6","","hanaA","hanaU","hanaA03-detaA06","152","16","whale","hanaU"
"<h1>どちらの単語が聞こえましたか</h1>","688","0","iden_exp","hana","deta","1","U","7","6","","hanaU","hanaU","hanaU07-detaU06","154","16","whale","hanaU"
"<h1>どちらの単語が聞こえましたか</h1>","570","1","iden_exp","hana","deta","1","U","7","6","","hanaU","hanaU","hanaU07-detaA06","156","16","whale","hanaU"
"<h1>どちらの単語が聞こえましたか</h1>","741","0","iden_exp","hana","deta","1","A","7","11","","hanaA","hanaA","hanaA07-detaU11","158","17","whale","hanaA"
"<h1>どちらの単語が聞こえましたか</h1>","613","1","iden_exp","hana","deta","1","U","11","11","","hanaU","hanaU","hanaU11-detaA11","160","17","whale","hanaU"
"<h1>どちらの単語が聞こえましたか</h1>","683","1","iden_exp","hana","deta","1","A","5","1","","hanaA","hanaA","hanaA05-detaU01","162","17","whale","hanaA"
"<h1>どちらの単語が聞こえましたか</h1>","405","1","iden_exp","hana","deta","1","A","7","6","","hanaA","hanaU","hanaA07-detaA06","164","17","whale","hanaU"
"<h1>どちらの単語が聞こえましたか</h1>","571","1","iden_exp","hana","deta","1","U","5","6","","hanaU","hanaU","hanaU05-detaU06","166","17","whale","hanaU"
"<h1>どちらの単語が聞こえましたか</h1>","584","1","iden_exp","hana","deta","1","U","3","1","","hanaU","hanaU","hanaU03-detaU01","168","17","whale","hanaU"
"<h1>どちらの単語が聞こえましたか</h1>","777","1","iden_exp","hana","deta","1","A","3","3","","hanaA","hanaA","hanaA03-detaU03","170","17","whale","hanaA"
"<h1>どちらの単語が聞こえましたか</h1>","579","0","iden_exp","hana","deta","1","U","6","3","","hanaU","hanaU","hanaU06-detaA03","172","17","whale","hanaU"
"<h1>どちらの単語が聞こえましたか</h1>","587","0","iden_exp","hana","deta","1","A","5","3","","hanaA","hanaA","hanaA05-detaU03","174","17","whale","hanaA"
"<h1>どちらの単語が聞こえましたか</h1>","487","0","iden_exp","hana","deta","1","U","3","7","","hanaU","hanaU","hanaU03-detaA07","176","17","whale","hanaU"
"<h1>どちらの単語が聞こえましたか</h1>","707","1","iden_exp","hana","deta","1","U","7","7","","hanaU","hanaU","hanaU07-detaA07","178","17","whale","hanaU"
"<h1>どちらの単語が聞こえましたか</h1>","552","0","iden_exp","hana","deta","1","A","9","9","","hanaA","hanaA","hanaA09-detaU09","180","17","whale","hanaA"
"<h1>どちらの単語が聞こえましたか</h1>","612","1","iden_exp","hana","deta","1","U","1","11","","hanaU","hanaU","hanaU01-detaU11","182","18","whale","hanaU"
"<h1>どちらの単語が聞こえましたか</h1>","655","1","iden_exp","hana","deta","1","U","9","3","","hanaU","hanaU","hanaU09-detaU03","184","18","whale","hanaU"
"<h1>どちらの単語が聞こえましたか</h1>","659","1","iden_exp","hana","deta","1","U","6","9","","hanaU","hanaU","hanaU06-detaU09","186","18","whale","hanaU"
"<h1>どちらの単語が聞こえましたか</h1>","545","1","iden_exp","hana","deta","1","A","1","3","","hanaA","hanaU","hanaA01-detaA03","188","18","whale","hanaU"
"<h1>どちらの単語が聞こえましたか</h1>","672","1","iden_exp","hana","deta","1","U","6","5","","hanaU","hanaU","hanaU06-detaA05","190","18","whale","hanaU"
"<h1>どちらの単語が聞こえましたか</h1>","547","1","iden_exp","hana","deta","1","U","7","9","","hanaU","hanaU","hanaU07-detaA09","192","18","whale","hanaU"
"<h1>どちらの単語が聞こえましたか</h1>","520","1","iden_exp","hana","deta","1","U","3","11","","hanaU","hanaU","hanaU03-detaA11","194","18","whale","hanaU"
"<h1>どちらの単語が聞こえましたか</h1>","601","1","iden_exp","hana","deta","1","A","1","5","","hanaA","hanaU","hanaA01-detaA05","196","18","whale","hanaU"
"<h1>どちらの単語が聞こえましたか</h1>","684","0","iden_exp","hana","deta","1","U","11","9","","hanaU","hanaU","hanaU11-detaA09","198","18","whale","hanaU"
"<h1>どちらの単語が聞こえましたか</h1>","808","0","iden_exp","hana","deta","1","U","6","6","","hanaU","hanaU","hanaU06-detaU06","200","18","whale","hanaU"
"<h1>どちらの単語が聞こえましたか</h1>","596","0","iden_exp","hana","deta","1","U","11","7","","hanaU","hanaU","hanaU11-detaU07","202","18","whale","hanaU"
"<h1>どちらの単語が聞こえましたか</h1>","591","1","iden_exp","hana","deta","1","A","5","9","","hanaA","hanaU","hanaA05-detaA09","204","19","whale","hanaU"
"<h1>どちらの単語が聞こえましたか</h1>","627","0","iden_exp","hana","deta","1","A","11","9","","hanaA","hanaU","hanaA11-detaA09","206","19","whale","hanaA"
"<h1>どちらの単語が聞こえましたか</h1>","570","0","iden_exp","hana","deta","1","A","1","1","","hanaA","hanaU","hanaA01-detaA01","208","19","whale","hanaA"
"<h1>どちらの単語が聞こえましたか</h1>","613","1","iden_exp","hana","deta","1","U","5","3","","hanaU","hanaU","hanaU05-detaU03","210","19","whale","hanaU"
"<h1>どちらの単語が聞こえましたか</h1>","489","0","iden_exp","hana","deta","1","A","9","1","","hanaA","hanaA","hanaA09-detaU01","212","19","whale","hanaA"
"<h1>どちらの単語が聞こえましたか</h1>","525","1","iden_exp","hana","deta","1","U","1","9","","hanaU","hanaU","hanaU01-detaU09","214","19","whale","hanaU"
"<h1>どちらの単語が聞こえましたか</h1>","454","1","iden_exp","hana","deta","1","A","11","3","","hanaA","hanaA","hanaA11-detaU03","216","19","whale","hanaA"
"<h1>どちらの単語が聞こえましたか</h1>","648","0","iden_exp","hana","deta","1","U","5","11","","hanaU","hanaU","hanaU05-detaA11","218","19","whale","hanaU"
"<h1>どちらの単語が聞こえましたか</h1>","944","0","iden_exp","hana","deta","1","A","9","5","","hanaA","hanaA","hanaA09-detaU05","220","19","whale","hanaA"
"<h1>どちらの単語が聞こえましたか</h1>","861","1","iden_exp","hana","deta","1","U","3","5","","hanaU","hanaU","hanaU03-detaA05","222","19","whale","hanaU"
"<h1>どちらの単語が聞こえましたか</h1>","589","0","iden_exp","hana","deta","1","U","3","7","","hanaU","hanaU","hanaU03-detaU07","224","19","whale","hanaU"
"<h1>どちらの単語が聞こえましたか</h1>","427","1","iden_exp","hana","deta","1","A","11","6","","hanaA","hanaU","hanaA11-detaA06","226","19","whale","hanaU"
"<h1>どちらの単語が聞こえましたか</h1>","655","1","iden_exp","hana","deta","1","A","7","9","","hanaA","hanaA","hanaA07-detaU09","228","19","whale","hanaA"
"<h1>どちらの単語が聞こえましたか</h1>","879","0","iden_exp","hana","deta","1","U","11","5","","hanaU","hanaU","hanaU11-detaA05","230","19","whale","hanaU"
"<h1>どちらの単語が聞こえましたか</h1>","718","0","iden_exp","hana","deta","1","A","11","5","","hanaA","hanaA","hanaA11-detaU05","232","19","whale","hanaA"
"<h1>どちらの単語が聞こえましたか</h1>","813","1","iden_exp","hana","deta","1","A","6","6","","hanaA","hanaU","hanaA06-detaA06","234","20","whale","hanaU"
"<h1>どちらの単語が聞こえましたか</h1>","486","1","iden_exp","hana","deta","1","A","5","9","","hanaA","hanaA","hanaA05-detaU09","236","20","whale","hanaA"
"<h1>どちらの単語が聞こえましたか</h1>","707","0","iden_exp","hana","deta","1","A","11","6","","hanaA","hanaA","hanaA11-detaU06","238","20","whale","hanaA"
"<h1>どちらの単語が聞こえましたか</h1>","530","0","iden_exp","hana","deta","1","A","5","1","","hanaA","hanaU","hanaA05-detaA01","240","20","whale","hanaA"
"<h1>どちらの単語が聞こえましたか</h1>","567","1","iden_exp","hana","deta","1","U","3","1","","hanaU","hanaU","hanaU03-detaA01","242","20","whale","hanaU"
"<h1>どちらの単語が聞こえましたか</h1>","566","1","iden_exp","hana","deta","1","U","3","3","","hanaU","hanaU","hanaU03-detaA03","244","20","whale","hanaU"
"<h1>どちらの単語が聞こえましたか</h1>","594","0","iden_exp","hana","deta","1","U","11","5","","hanaU","hanaU","hanaU11-detaU05","246","20","whale","hanaU"
"<h1>どちらの単語が聞こえましたか</h1>","570","0","iden_exp","hana","deta","1","U","5","3","","hanaU","hanaU","hanaU05-detaA03","248","20","whale","hanaU"
"<h1>どちらの単語が聞こえましたか</h1>","906","1","iden_exp","hana","deta","1","U","9","3","","hanaU","hanaU","hanaU09-detaA03","250","20","whale","hanaU"
"<h1>どちらの単語が聞こえましたか</h1>","625","0","iden_exp","hana","deta","1","A","1","11","","hanaA","hanaU","hanaA01-detaA11","252","20","whale","hanaA"
"<h1>どちらの単語が聞こえましたか</h1>","569","1","iden_exp","hana","deta","1","A","11","7","","hanaA","hanaU","hanaA11-detaA07","254","20","whale","hanaU"
"<h1>どちらの単語が聞こえましたか</h1>","511","1","iden_exp","hana","deta","1","U","1","1","","hanaU","hanaU","hanaU01-detaA01","256","20","whale","hanaU"
"<h1>どちらの単語が聞こえましたか</h1>","567","0","iden_exp","hana","deta","1","U","9","6","","hanaU","hanaU","hanaU09-detaU06","258","20","whale","hanaU"
"<h1>どちらの単語が聞こえましたか</h1>","643","0","iden_exp","hana","deta","1","A","3","3","","hanaA","hanaU","hanaA03-detaA03","260","20","whale","hanaA"
"<h1>どちらの単語が聞こえましたか</h1>","536","1","iden_exp","hana","deta","1","U","7","11","","hanaU","hanaU","hanaU07-detaA11","262","21","whale","hanaU"
"<h1>どちらの単語が聞こえましたか</h1>","484","1","iden_exp","hana","deta","1","U","1","11","","hanaU","hanaU","hanaU01-detaA11","264","21","whale","hanaU"
"<h1>どちらの単語が聞こえましたか</h1>","478","0","iden_exp","hana","deta","1","U","7","5","","hanaU","hanaU","hanaU07-detaA05","266","21","whale","hanaU"
"<h1>どちらの単語が聞こえましたか</h1>","880","0","iden_exp","hana","deta","1","U","9","9","","hanaU","hanaU","hanaU09-detaA09","268","21","whale","hanaU"
"<h1>どちらの単語が聞こえましたか</h1>","603","1","iden_exp","hana","deta","1","A","11","7","","hanaA","hanaA","hanaA11-detaU07","270","22","whale","hanaA"
"<h1>どちらの単語が聞こえましたか</h1>","489","1","iden_exp","hana","deta","1","A","6","1","","hanaA","hanaU","hanaA06-detaA01","272","22","whale","hanaU"
"<h1>どちらの単語が聞こえましたか</h1>","628","1","iden_exp","hana","deta","1","A","5","5","","hanaA","hanaA","hanaA05-detaU05","274","22","whale","hanaA"
"<h1>どちらの単語が聞こえましたか</h1>","687","1","iden_exp","hana","deta","1","U","6","1","","hanaU","hanaU","hanaU06-detaU01","276","22","whale","hanaU"
"<h1>どちらの単語が聞こえましたか</h1>","601","0","iden_exp","hana","deta","1","A","7","5","","hanaA","hanaA","hanaA07-detaU05","278","22","whale","hanaA"
"<h1>どちらの単語が聞こえましたか</h1>","528","1","iden_exp","hana","deta","1","U","1","9","","hanaU","hanaU","hanaU01-detaA09","280","22","whale","hanaU"
"<h1>どちらの単語が聞こえましたか</h1>","783","0","iden_exp","hana","deta","1","A","5","5","","hanaA","hanaU","hanaA05-detaA05","282","22","whale","hanaA"
"<h1>どちらの単語が聞こえましたか</h1>","774","1","iden_exp","hana","deta","1","U","9","9","","hanaU","hanaU","hanaU09-detaU09","284","22","whale","hanaU"
"<h1>どちらの単語が聞こえましたか</h1>","818","0","iden_exp","hana","deta","1","U","1","3","","hanaU","hanaU","hanaU01-detaA03","286","22","whale","hanaU"
"<h1>どちらの単語が聞こえましたか</h1>","645","1","iden_exp","hana","deta","1","A","1","7","","hanaA","hanaU","hanaA01-detaA07","288","22","whale","hanaU"
"<h1>どちらの単語が聞こえましたか</h1>","775","0","iden_exp","hana","deta","1","U","3","11","","hanaU","hanaU","hanaU03-detaU11","290","22","whale","hanaU"
"<h1>どちらの単語が聞こえましたか</h1>","538","1","iden_exp","hana","deta","1","U","11","9","","hanaU","hanaU","hanaU11-detaU09","292","22","whale","hanaU"
"<h1>どちらの単語が聞こえましたか</h1>","638","1","iden_exp","hana","deta","1","A","3","7","","hanaA","hanaU","hanaA03-detaA07","294","22","whale","hanaU"
"<h1>どちらの単語が聞こえましたか</h1>","606","0","iden_exp","hana","deta","1","A","7","1","","hanaA","hanaA","hanaA07-detaU01","296","22","whale","hanaA"
"<h1>どちらの単語が聞こえましたか</h1>","383","0","iden_exp","hana","deta","1","U","11","1","","hanaU","hanaU","hanaU11-detaU01","298","22","whale","hanaU"
"<h1>どちらの単語が聞こえましたか</h1>","539","0","iden_exp","hana","deta","1","U","5","5","","hanaU","hanaU","hanaU05-detaU05","300","23","whale","hanaU"
"<h1>どちらの単語が聞こえましたか</h1>","863","0","iden_exp","hana","deta","1","U","1","1","","hanaU","hanaU","hanaU01-detaU01","302","23","whale","hanaU"
"<h1>どちらの単語が聞こえましたか</h1>","551","0","iden_exp","hana","deta","1","U","6","11","","hanaU","hanaU","hanaU06-detaA11","304","23","whale","hanaU"
"<h1>どちらの単語が聞こえましたか</h1>","486","0","iden_exp","hana","deta","1","A","7","11","","hanaA","hanaU","hanaA07-detaA11","306","23","whale","hanaA"
"<h1>どちらの単語が聞こえましたか</h1>","526","1","iden_exp","hana","deta","1","A","1","6","","hanaA","hanaU","hanaA01-detaA06","308","23","whale","hanaU"
"<h1>どちらの単語が聞こえましたか</h1>","660","0","iden_exp","hana","deta","1","A","11","3","","hanaA","hanaU","hanaA11-detaA03","310","23","whale","hanaA"
"<h1>どちらの単語が聞こえましたか</h1>","573","1","iden_exp","hana","deta","1","A","7","3","","hanaA","hanaU","hanaA07-detaA03","312","23","whale","hanaU"
"<h1>どちらの単語が聞こえましたか</h1>","443","1","iden_exp","hana","deta","1","U","5","5","","hanaU","hanaU","hanaU05-detaA05","314","23","whale","hanaU"
"<h1>どちらの単語が聞こえましたか</h1>","456","1","iden_exp","hana","deta","1","A","3","11","","hanaA","hanaA","hanaA03-detaU11","316","23","whale","hanaA"
"<h1>どちらの単語が聞こえましたか</h1>","652","0","iden_exp","hana","deta","1","U","5","7","","hanaU","hanaU","hanaU05-detaU07","318","23","whale","hanaU"
"<h1>どちらの単語が聞こえましたか</h1>","612","0","iden_exp","hana","deta","1","U","1","7","","hanaU","hanaU","hanaU01-detaU07","320","23","whale","hanaU"
"<h1>どちらの単語が聞こえましたか</h1>","642","1","iden_exp","hana","deta","1","U","9","7","","hanaU","hanaU","hanaU09-detaA07","322","23","whale","hanaU"
"<h1>どちらの単語が聞こえましたか</h1>","792","0","iden_exp","hana","deta","1","U","9","11","","hanaU","hanaU","hanaU09-detaA11","324","23","whale","hanaU"
"<h1>どちらの単語が聞こえましたか</h1>","678","0","iden_exp","hana","deta","1","A","5","3","","hanaA","hanaU","hanaA05-detaA03","326","23","whale","hanaA"
"<h1>どちらの単語が聞こえましたか</h1>","449","0","iden_exp","hana","deta","1","A","9","9","","hanaA","hanaU","hanaA09-detaA09","328","23","whale","hanaA"
"<h1>どちらの単語が聞こえましたか</h1>","574","0","iden_exp","hana","deta","1","U","3","9","","hanaU","hanaU","hanaU03-detaU09","330","24","whale","hanaU"
"<h1>どちらの単語が聞こえましたか</h1>","599","0","iden_exp","hana","deta","1","A","1","6","","hanaA","hanaA","hanaA01-detaU06","332","24","whale","hanaA"
"<h1>どちらの単語が聞こえましたか</h1>","783","0","iden_exp","hana","deta","1","U","11","3","","hanaU","hanaU","hanaU11-detaA03","334","24","whale","hanaU"
"<h1>どちらの単語が聞こえましたか</h1>","534","0","iden_exp","hana","deta","1","A","6","5","","hanaA","hanaU","hanaA06-detaA05","336","24","whale","hanaA"
"<h1>どちらの単語が聞こえましたか</h1>","494","1","iden_exp","hana","deta","1","A","6","1","","hanaA","hanaA","hanaA06-detaU01","338","24","whale","hanaA"
"<h1>どちらの単語が聞こえましたか</h1>","802","1","iden_exp","hana","deta","1","A","9","3","","hanaA","hanaA","hanaA09-detaU03","340","24","whale","hanaA"
"<h1>どちらの単語が聞こえましたか</h1>","595","1","iden_exp","hana","deta","1","A","1","1","","hanaA","hanaA","hanaA01-detaU01","342","24","whale","hanaA"
"<h1>どちらの単語が聞こえましたか</h1>","634","1","iden_exp","hana","deta","1","A","11","9","","hanaA","hanaA","hanaA11-detaU09","344","24","whale","hanaA"
"<h1>どちらの単語が聞こえましたか</h1>","1251","1","iden_exp","hana","deta","1","U","1","6","","hanaU","hanaU","hanaU01-detaU06","346","24","whale","hanaU"
"<h1>どちらの単語が聞こえましたか</h1>","576","1","iden_exp","hana","deta","1","A","9","6","","hanaA","hanaU","hanaA09-detaA06","348","24","whale","hanaU"
"<h1>どちらの単語が聞こえましたか</h1>","487","1","iden_exp","hana","deta","1","A","3","11","","hanaA","hanaU","hanaA03-detaA11","350","24","whale","hanaU"
"<h1>どちらの単語が聞こえましたか</h1>","506","1","iden_exp","hana","deta","1","A","9","3","","hanaA","hanaU","hanaA09-detaA03","352","24","whale","hanaU"
"<h1>どちらの単語が聞こえましたか</h1>","781","0","iden_exp","hana","deta","1","A","6","7","","hanaA","hanaA","hanaA06-detaU07","354","24","whale","hanaA"
"<h1>どちらの単語が聞こえましたか</h1>","553","1","iden_exp","hana","deta","1","A","1","9","","hanaA","hanaU","hanaA01-detaA09","356","24","whale","hanaU"
"<h1>どちらの単語が聞こえましたか</h1>","680","1","iden_exp","hana","deta","1","A","5","11","","hanaA","hanaU","hanaA05-detaA11","358","24","whale","hanaU"
"<h1>どちらの単語が聞こえましたか</h1>","753","0","iden_exp","hana","deta","1","A","3","5","","hanaA","hanaU","hanaA03-detaA05","360","24","whale","hanaA"
"<h1>どちらの単語が聞こえましたか</h1>","676","1","iden_exp","hana","deta","1","U","9","5","","hanaU","hanaU","hanaU09-detaU05","362","25","whale","hanaU"
"<h1>どちらの単語が聞こえましたか</h1>","477","1","iden_exp","hana","deta","1","A","1","9","","hanaA","hanaA","hanaA01-detaU09","364","25","whale","hanaA"
"<h1>どちらの単語が聞こえましたか</h1>","1027","0","iden_exp","hana","deta","1","U","5","6","","hanaU","hanaU","hanaU05-detaA06","366","25","whale","hanaU"
"<h1>どちらの単語が聞こえましたか</h1>","522","1","iden_exp","hana","deta","1","A","6","3","","hanaA","hanaA","hanaA06-detaU03","368","25","whale","hanaA"
"<h1>どちらの単語が聞こえましたか</h1>","755","1","iden_exp","hana","deta","1","U","5","11","","hanaU","hanaU","hanaU05-detaU11","370","25","whale","hanaU"
"<h1>どちらの単語が聞こえましたか</h1>","692","0","iden_exp","hana","deta","1","A","5","6","","hanaA","hanaU","hanaA05-detaA06","372","25","whale","hanaA"
"<h1>どちらの単語が聞こえましたか</h1>","550","0","iden_exp","hana","deta","1","U","11","3","","hanaU","hanaU","hanaU11-detaU03","374","25","whale","hanaU"
"<h1>どちらの単語が聞こえましたか</h1>","718","1","iden_exp","hana","deta","1","A","3","9","","hanaA","hanaA","hanaA03-detaU09","376","25","whale","hanaA"
"<h1>どちらの単語が聞こえましたか</h1>","959","0","iden_exp","hana","deta","1","U","7","7","","hanaU","hanaU","hanaU07-detaU07","378","25","whale","hanaU"
"<h1>どちらの単語が聞こえましたか</h1>","599","1","iden_exp","hana","deta","1","U","6","5","","hanaU","hanaU","hanaU06-detaU05","380","26","whale","hanaU"
"<h1>どちらの単語が聞こえましたか</h1>","752","0","iden_exp","hana","deta","1","U","3","9","","hanaU","hanaU","hanaU03-detaA09","382","26","whale","hanaU"
"<h1>どちらの単語が聞こえましたか</h1>","941","0","iden_exp","hana","deta","1","A","9","5","","hanaA","hanaU","hanaA09-detaA05","384","26","whale","hanaA"
"<h1>どちらの単語が聞こえましたか</h1>","490","1","iden_exp","hana","deta","1","U","3","6","","hanaU","hanaU","hanaU03-detaU06","386","27","whale","hanaU"
"<h1>どちらの単語が聞こえましたか</h1>","702","0","iden_exp","hana","deta","1","A","9","7","","hanaA","hanaA","hanaA09-detaU07","388","27","whale","hanaA"
"<h1>どちらの単語が聞こえましたか</h1>","740","1","iden_exp","hana","deta","1","U","7","9","","hanaU","hanaU","hanaU07-detaU09","390","27","whale","hanaU"
"<h1>どちらの単語が聞こえましたか</h1>","740","1","iden_exp","hana","deta","1","U","5","9","","hanaU","hanaU","hanaU05-detaA09","392","27","whale","hanaU"
"<h1>どちらの単語が聞こえましたか</h1>","735","0","iden_exp","hana","deta","1","A","1","7","","hanaA","hanaA","hanaA01-detaU07","394","27","whale","hanaA"
"<h1>どちらの単語が聞こえましたか</h1>","748","0","iden_exp","hana","deta","1","U","7","3","","hanaU","hanaU","hanaU07-detaA03","396","27","whale","hanaU"
"<h1>どちらの単語が聞こえましたか</h1>","623","1","iden_exp","hana","deta","1","A","5","7","","hanaA","hanaU","hanaA05-detaA07","398","27","whale","hanaU"
"<h1>どちらの単語が聞こえましたか</h1>","688","0","iden_exp","hana","deta","1","A","7","7","","hanaA","hanaU","hanaA07-detaA07","400","27","whale","hanaA"
"<h1>どちらの単語が聞こえましたか</h1>","559","0","iden_exp","hana","deta","1","U","1","5","","hanaU","hanaU","hanaU01-detaU05","402","27","whale","hanaU"
"<h1>どちらの単語が聞こえましたか</h1>","630","1","iden_exp","hana","deta","1","A","7","5","","hanaA","hanaU","hanaA07-detaA05","404","27","whale","hanaU"
"<h1>どちらの単語が聞こえましたか</h1>","462","1","iden_exp","hana","deta","1","U","5","7","","hanaU","hanaU","hanaU05-detaA07","406","27","whale","hanaU"
"<h1>どちらの単語が聞こえましたか</h1>","575","1","iden_exp","hana","deta","1","U","1","6","","hanaU","hanaU","hanaU01-detaA06","408","27","whale","hanaU"
"<h1>どちらの単語が聞こえましたか</h1>","772","0","iden_exp","hana","deta","1","A","9","11","","hanaA","hanaA","hanaA09-detaU11","410","28","whale","hanaA"
"<h1>どちらの単語が聞こえましたか</h1>","580","0","iden_exp","hana","deta","1","A","6","9","","hanaA","hanaU","hanaA06-detaA09","412","28","whale","hanaA"
"<h1>どちらの単語が聞こえましたか</h1>","528","1","iden_exp","hana","deta","1","U","6","7","","hanaU","hanaU","hanaU06-detaU07","414","28","whale","hanaU"
"<h1>どちらの単語が聞こえましたか</h1>","774","1","iden_exp","hana","deta","2","A","11","1","","hanaA","hanaA","hanaA11-detaU01","417","28","whale","hanaA"
"<h1>どちらの単語が聞こえましたか</h1>","815","1","iden_exp","hana","deta","2","U","11","3","","hanaU","hanaU","hanaU11-detaU03","419","28","whale","hanaU"
"<h1>どちらの単語が聞こえましたか</h1>","893","0","iden_exp","hana","deta","2","U","7","7","","hanaU","hanaU","hanaU07-detaU07","421","28","whale","hanaU"
"<h1>どちらの単語が聞こえましたか</h1>","786","1","iden_exp","hana","deta","2","A","9","5","","hanaA","hanaU","hanaA09-detaA05","423","28","whale","hanaA"
"<h1>どちらの単語が聞こえましたか</h1>","748","1","iden_exp","hana","deta","2","A","9","1","","hanaA","hanaU","hanaA09-detaA01","425","28","whale","hanaA"
"<h1>どちらの単語が聞こえましたか</h1>","464","0","iden_exp","hana","deta","2","A","9","9","","hanaA","hanaU","hanaA09-detaA09","427","28","whale","hanaU"
"<h1>どちらの単語が聞こえましたか</h1>","603","1","iden_exp","hana","deta","2","A","11","11","","hanaA","hanaU","hanaA11-detaA11","429","28","whale","hanaA"
"<h1>どちらの単語が聞こえましたか</h1>","793","0","iden_exp","hana","deta","2","U","5","3","","hanaU","hanaU","hanaU05-detaU03","431","29","whale","hanaU"
"<h1>どちらの単語が聞こえましたか</h1>","604","1","iden_exp","hana","deta","2","A","6","11","","hanaA","hanaU","hanaA06-detaA11","433","29","whale","hanaA"
"<h1>どちらの単語が聞こえましたか</h1>","755","0","iden_exp","hana","deta","2","A","6","9","","hanaA","hanaU","hanaA06-detaA09","435","29","whale","hanaU"
"<h1>どちらの単語が聞こえましたか</h1>","573","0","iden_exp","hana","deta","2","U","9","1","","hanaU","hanaU","hanaU09-detaU01","437","31","whale","hanaU"
"<h1>どちらの単語が聞こえましたか</h1>","609","0","iden_exp","","","2","","","","","","","","439","31","whale",""
"<h1>どちらの単語が聞こえましたか</h1>","624","0","iden_exp","hana","deta","2","A","7","11","","hanaA","hanaA","hanaA07-detaU11","441","31","whale","hanaA"
"<h1>どちらの単語が聞こえましたか</h1>","677","1","iden_exp","hana","deta","2","A","3","6","","hanaA","hanaA","hanaA03-detaU06","443","31","whale","hanaA"
"<h1>どちらの単語が聞こえましたか</h1>","653","0","iden_exp","hana","deta","2","A","3","9","","hanaA","hanaU","hanaA03-detaA09","445","31","whale","hanaU"
"<h1>どちらの単語が聞こえましたか</h1>","594","0","iden_exp","hana","deta","2","U","3","11","","hanaU","hanaU","hanaU03-detaU11","447","32","whale","hanaU"
"<h1>どちらの単語が聞こえましたか</h1>","1029","1","iden_exp","hana","deta","2","A","9","5","","hanaA","hanaA","hanaA09-detaU05","449","32","whale","hanaA"
"<h1>どちらの単語が聞こえましたか</h1>","694","1","iden_exp","hana","deta","2","A","5","11","","hanaA","hanaU","hanaA05-detaA11","451","32","whale","hanaA"
"<h1>どちらの単語が聞こえましたか</h1>","512","0","iden_exp","hana","deta","2","U","11","11","","hanaU","hanaU","hanaU11-detaA11","453","32","whale","hanaU"
"<h1>どちらの単語が聞こえましたか</h1>","775","1","iden_exp","hana","deta","2","U","6","11","","hanaU","hanaU","hanaU06-detaU11","455","33","whale","hanaU"
"<h1>どちらの単語が聞こえましたか</h1>","599","0","iden_exp","hana","deta","2","U","7","9","","hanaU","hanaU","hanaU07-detaU09","457","33","whale","hanaU"
"<h1>どちらの単語が聞こえましたか</h1>","692","1","iden_exp","hana","deta","2","U","1","3","","hanaU","hanaU","hanaU01-detaU03","459","33","whale","hanaU"
"<h1>どちらの単語が聞こえましたか</h1>","664","0","iden_exp","hana","deta","2","A","3","3","","hanaA","hanaA","hanaA03-detaU03","461","33","whale","hanaA"
"<h1>どちらの単語が聞こえましたか</h1>","636","0","iden_exp","hana","deta","2","A","7","3","","hanaA","hanaU","hanaA07-detaA03","463","34","whale","hanaU"
"<h1>どちらの単語が聞こえましたか</h1>","1313","1","iden_exp","hana","deta","2","U","7","5","","hanaU","hanaU","hanaU07-detaU05","465","34","whale","hanaU"
"<h1>どちらの単語が聞こえましたか</h1>","506","1","iden_exp","hana","deta","2","U","11","9","","hanaU","hanaU","hanaU11-detaA09","467","34","whale","hanaU"
"<h1>どちらの単語が聞こえましたか</h1>","441","0","iden_exp","hana","deta","2","A","7","3","","hanaA","hanaA","hanaA07-detaU03","469","34","whale","hanaA"
"<h1>どちらの単語が聞こえましたか</h1>","524","0","iden_exp","hana","deta","2","U","1","11","","hanaU","hanaU","hanaU01-detaA11","471","35","whale","hanaU"
"<h1>どちらの単語が聞こえましたか</h1>","578","1","iden_exp","hana","deta","2","U","5","7","","hanaU","hanaU","hanaU05-detaA07","473","35","whale","hanaU"
"<h1>どちらの単語が聞こえましたか</h1>","522","1","iden_exp","hana","deta","2","U","11","5","","hanaU","hanaU","hanaU11-detaA05","475","35","whale","hanaU"
"<h1>どちらの単語が聞こえましたか</h1>","844","1","iden_exp","hana","deta","2","U","6","6","","hanaU","hanaU","hanaU06-detaA06","477","35","whale","hanaU"
"<h1>どちらの単語が聞こえましたか</h1>","649","0","iden_exp","hana","deta","2","A","3","7","","hanaA","hanaU","hanaA03-detaA07","479","35","whale","hanaU"
"<h1>どちらの単語が聞こえましたか</h1>","599","1","iden_exp","hana","deta","2","U","7","7","","hanaU","hanaU","hanaU07-detaA07","481","35","whale","hanaU"
"<h1>どちらの単語が聞こえましたか</h1>","668","0","iden_exp","hana","deta","2","U","5","11","","hanaU","hanaU","hanaU05-detaA11","483","35","whale","hanaU"
"<h1>どちらの単語が聞こえましたか</h1>","666","0","iden_exp","hana","deta","2","A","1","5","","hanaA","hanaA","hanaA01-detaU05","485","35","whale","hanaA"
"<h1>どちらの単語が聞こえましたか</h1>","539","0","iden_exp","hana","deta","2","A","6","1","","hanaA","hanaU","hanaA06-detaA01","487","35","whale","hanaU"
"<h1>どちらの単語が聞こえましたか</h1>","541","0","iden_exp","hana","deta","2","U","7","1","","hanaU","hanaU","hanaU07-detaU01","489","35","whale","hanaU"
"<h1>どちらの単語が聞こえましたか</h1>","673","0","iden_exp","hana","deta","2","A","3","5","","hanaA","hanaA","hanaA03-detaU05","491","36","whale","hanaA"
"<h1>どちらの単語が聞こえましたか</h1>","575","0","iden_exp","hana","deta","2","A","1","9","","hanaA","hanaU","hanaA01-detaA09","493","36","whale","hanaU"
"<h1>どちらの単語が聞こえましたか</h1>","1089","0","iden_exp","hana","deta","2","U","6","1","","hanaU","hanaU","hanaU06-detaU01","495","36","whale","hanaU"
"<h1>どちらの単語が聞こえましたか</h1>","606","1","iden_exp","hana","deta","2","U","3","9","","hanaU","hanaU","hanaU03-detaU09","497","36","whale","hanaU"
"<h1>どちらの単語が聞こえましたか</h1>","423","1","iden_exp","hana","deta","2","U","11","7","","hanaU","hanaU","hanaU11-detaA07","499","36","whale","hanaU"
"<h1>どちらの単語が聞こえましたか</h1>","787","0","iden_exp","hana","deta","2","U","9","9","","hanaU","hanaU","hanaU09-detaA09","501","36","whale","hanaU"
"<h1>どちらの単語が聞こえましたか</h1>","686","0","iden_exp","hana","deta","2","A","5","5","","hanaA","hanaA","hanaA05-detaU05","503","36","whale","hanaA"
"<h1>どちらの単語が聞こえましたか</h1>","670","1","iden_exp","hana","deta","2","A","7","11","","hanaA","hanaU","hanaA07-detaA11","505","36","whale","hanaA"
"<h1>どちらの単語が聞こえましたか</h1>","583","1","iden_exp","hana","deta","2","U","5","6","","hanaU","hanaU","hanaU05-detaA06","507","37","whale","hanaU"
"<h1>どちらの単語が聞こえましたか</h1>","695","1","iden_exp","hana","deta","2","U","9","9","","hanaU","hanaU","hanaU09-detaU09","509","37","whale","hanaU"
"<h1>どちらの単語が聞こえましたか</h1>","654","0","iden_exp","hana","deta","2","A","7","5","","hanaA","hanaA","hanaA07-detaU05","511","37","whale","hanaA"
"<h1>どちらの単語が聞こえましたか</h1>","640","0","iden_exp","hana","deta","2","U","9","1","","hanaU","hanaU","hanaU09-detaA01","513","38","whale","hanaU"
"<h1>どちらの単語が聞こえましたか</h1>","707","1","iden_exp","hana","deta","2","U","9","5","","hanaU","hanaU","hanaU09-detaA05","515","38","whale","hanaU"
"<h1>どちらの単語が聞こえましたか</h1>","538","1","iden_exp","hana","deta","2","U","6","3","","hanaU","hanaU","hanaU06-detaA03","517","38","whale","hanaU"
"<h1>どちらの単語が聞こえましたか</h1>","639","0","iden_exp","hana","deta","2","A","7","6","","hanaA","hanaU","hanaA07-detaA06","519","38","whale","hanaU"
"<h1>どちらの単語が聞こえましたか</h1>","448","0","iden_exp","hana","deta","2","A","11","6","","hanaA","hanaA","hanaA11-detaU06","521","38","whale","hanaA"
"<h1>どちらの単語が聞こえましたか</h1>","604","0","iden_exp","hana","deta","2","A","6","5","","hanaA","hanaU","hanaA06-detaA05","523","38","whale","hanaU"
"<h1>どちらの単語が聞こえましたか</h1>","614","0","iden_exp","hana","deta","2","A","5","7","","hanaA","hanaA","hanaA05-detaU07","525","38","whale","hanaA"
"<h1>どちらの単語が聞こえましたか</h1>","466","0","iden_exp","hana","deta","2","A","7","7","","hanaA","hanaA","hanaA07-detaU07","527","38","whale","hanaA"
"<h1>どちらの単語が聞こえましたか</h1>","650","0","iden_exp","hana","deta","2","A","11","9","","hanaA","hanaU","hanaA11-detaA09","529","38","whale","hanaU"
"<h1>どちらの単語が聞こえましたか</h1>","576","0","iden_exp","hana","deta","2","U","11","6","","hanaU","hanaU","hanaU11-detaA06","531","38","whale","hanaU"
"<h1>どちらの単語が聞こえましたか</h1>","756","1","iden_exp","hana","deta","2","U","1","1","","hanaU","hanaU","hanaU01-detaU01","533","38","whale","hanaU"
"<h1>どちらの単語が聞こえましたか</h1>","621","1","iden_exp","hana","deta","2","A","9","6","","hanaA","hanaU","hanaA09-detaA06","535","39","whale","hanaA"
"<h1>どちらの単語が聞こえましたか</h1>","727","1","iden_exp","hana","deta","2","U","3","5","","hanaU","hanaU","hanaU03-detaA05","537","39","whale","hanaU"
"<h1>どちらの単語が聞こえましたか</h1>","960","1","iden_exp","hana","deta","2","A","1","1","","hanaA","hanaU","hanaA01-detaA01","539","39","whale","hanaA"
"<h1>どちらの単語が聞こえましたか</h1>","556","0","iden_exp","hana","deta","2","A","3","11","","hanaA","hanaA","hanaA03-detaU11","541","39","whale","hanaA"
"<h1>どちらの単語が聞こえましたか</h1>","610","0","iden_exp","hana","deta","2","U","3","7","","hanaU","hanaU","hanaU03-detaA07","543","39","whale","hanaU"
"<h1>どちらの単語が聞こえましたか</h1>","543","0","iden_exp","hana","deta","2","A","6","7","","hanaA","hanaA","hanaA06-detaU07","545","39","whale","hanaA"
"<h1>どちらの単語が聞こえましたか</h1>","561","0","iden_exp","hana","deta","2","A","9","11","","hanaA","hanaA","hanaA09-detaU11","547","39","whale","hanaA"
"<h1>どちらの単語が聞こえましたか</h1>","589","0","iden_exp","hana","deta","2","U","1","6","","hanaU","hanaU","hanaU01-detaA06","549","39","whale","hanaU"
"<h1>どちらの単語が聞こえましたか</h1>","800","0","iden_exp","hana","deta","2","A","1","5","","hanaA","hanaU","hanaA01-detaA05","551","39","whale","hanaU"
"<h1>どちらの単語が聞こえましたか</h1>","639","0","iden_exp","hana","deta","2","U","7","6","","hanaU","hanaU","hanaU07-detaU06","553","39","whale","hanaU"
"<h1>どちらの単語が聞こえましたか</h1>","1424","1","iden_exp","hana","deta","2","A","9","11","","hanaA","hanaU","hanaA09-detaA11","555","39","whale","hanaA"
"<h1>どちらの単語が聞こえましたか</h1>","771","0","iden_exp","hana","deta","2","U","5","3","","hanaU","hanaU","hanaU05-detaA03","557","39","whale","hanaU"
"<h1>どちらの単語が聞こえましたか</h1>","607","1","iden_exp","hana","deta","2","U","3","3","","hanaU","hanaU","hanaU03-detaA03","559","39","whale","hanaU"
"<h1>どちらの単語が聞こえましたか</h1>","567","1","iden_exp","hana","deta","2","U","3","6","","hanaU","hanaU","hanaU03-detaU06","561","39","whale","hanaU"
"<h1>どちらの単語が聞こえましたか</h1>","677","0","iden_exp","hana","deta","2","A","3","7","","hanaA","hanaA","hanaA03-detaU07","563","39","whale","hanaA"
"<h1>どちらの単語が聞こえましたか</h1>","427","1","iden_exp","hana","deta","2","U","5","9","","hanaU","hanaU","hanaU05-detaU09","565","39","whale","hanaU"
"<h1>どちらの単語が聞こえましたか</h1>","821","0","iden_exp","hana","deta","2","A","3","1","","hanaA","hanaU","hanaA03-detaA01","567","40","whale","hanaU"
"<h1>どちらの単語が聞こえましたか</h1>","1221","0","iden_exp","hana","deta","2","A","1","6","","hanaA","hanaU","hanaA01-detaA06","569","40","whale","hanaU"
"<h1>どちらの単語が聞こえましたか</h1>","589","1","iden_exp","hana","deta","2","U","5","6","","hanaU","hanaU","hanaU05-detaU06","571","40","whale","hanaU"
"<h1>どちらの単語が聞こえましたか</h1>","581","0","iden_exp","hana","deta","2","U","6","9","","hanaU","hanaU","hanaU06-detaU09","573","40","whale","hanaU"
"<h1>どちらの単語が聞こえましたか</h1>","534","0","iden_exp","hana","deta","2","U","1","7","","hanaU","hanaU","hanaU01-detaA07","575","40","whale","hanaU"
"<h1>どちらの単語が聞こえましたか</h1>","542","0","iden_exp","hana","deta","2","U","3","5","","hanaU","hanaU","hanaU03-detaU05","577","40","whale","hanaU"
"<h1>どちらの単語が聞こえましたか</h1>","536","0","iden_exp","hana","deta","2","A","7","6","","hanaA","hanaA","hanaA07-detaU06","579","40","whale","hanaA"
"<h1>どちらの単語が聞こえましたか</h1>","673","1","iden_exp","hana","deta","2","U","6","1","","hanaU","hanaU","hanaU06-detaA01","581","40","whale","hanaU"
"<h1>どちらの単語が聞こえましたか</h1>","739","1","iden_exp","hana","deta","2","U","7","9","","hanaU","hanaU","hanaU07-detaA09","583","40","whale","hanaU"
"<h1>どちらの単語が聞こえましたか</h1>","551","0","iden_exp","hana","deta","2","A","3","6","","hanaA","hanaU","hanaA03-detaA06","585","40","whale","hanaU"
"<h1>どちらの単語が聞こえましたか</h1>","499","0","iden_exp","hana","deta","2","U","3","6","","hanaU","hanaU","hanaU03-detaA06","587","40","whale","hanaU"
"<h1>どちらの単語が聞こえましたか</h1>","665","0","iden_exp","hana","deta","2","A","7","1","","hanaA","hanaA","hanaA07-detaU01","589","40","whale","hanaA"
"<h1>どちらの単語が聞こえましたか</h1>","550","0","iden_exp","hana","deta","2","A","7","9","","hanaA","hanaU","hanaA07-detaA09","591","40","whale","hanaU"
"<h1>どちらの単語が聞こえましたか</h1>","789","1","iden_exp","hana","deta","2","U","11","9","","hanaU","hanaU","hanaU11-detaU09","593","40","whale","hanaU"
"<h1>どちらの単語が聞こえましたか</h1>","546","0","iden_exp","hana","deta","2","A","9","1","","hanaA","hanaA","hanaA09-detaU01","595","40","whale","hanaA"
"<h1>どちらの単語が聞こえましたか</h1>","528","0","iden_exp","hana","deta","2","U","9","11","","hanaU","hanaU","hanaU09-detaA11","597","40","whale","hanaU"
"<h1>どちらの単語が聞こえましたか</h1>","508","1","iden_exp","hana","deta","2","U","11","6","","hanaU","hanaU","hanaU11-detaU06","599","41","whale","hanaU"
"<h1>どちらの単語が聞こえましたか</h1>","675","1","iden_exp","hana","deta","2","A","3","11","","hanaA","hanaU","hanaA03-detaA11","601","41","whale","hanaA"
"<h1>どちらの単語が聞こえましたか</h1>","625","1","iden_exp","hana","deta","2","A","6","11","","hanaA","hanaA","hanaA06-detaU11","603","41","whale","hanaA"
"<h1>どちらの単語が聞こえましたか</h1>","647","1","iden_exp","hana","deta","2","U","1","1","","hanaU","hanaU","hanaU01-detaA01","605","41","whale","hanaU"
"<h1>どちらの単語が聞こえましたか</h1>","551","1","iden_exp","hana","deta","2","A","11","7","","hanaA","hanaA","hanaA11-detaU07","607","41","whale","hanaA"
"<h1>どちらの単語が聞こえましたか</h1>","585","0","iden_exp","hana","deta","2","A","9","9","","hanaA","hanaA","hanaA09-detaU09","609","41","whale","hanaA"
"<h1>どちらの単語が聞こえましたか</h1>","623","1","iden_exp","hana","deta","2","U","1","7","","hanaU","hanaU","hanaU01-detaU07","611","41","whale","hanaU"
"<h1>どちらの単語が聞こえましたか</h1>","826","0","iden_exp","hana","deta","2","U","7","3","","hanaU","hanaU","hanaU07-detaA03","613","41","whale","hanaU"
"<h1>どちらの単語が聞こえましたか</h1>","598","0","iden_exp","hana","deta","2","A","9","7","","hanaA","hanaA","hanaA09-detaU07","615","41","whale","hanaA"
"<h1>どちらの単語が聞こえましたか</h1>","392","0","iden_exp","hana","deta","2","U","5","1","","hanaU","hanaU","hanaU05-detaU01","617","41","whale","hanaU"
"<h1>どちらの単語が聞こえましたか</h1>","731","1","iden_exp","hana","deta","2","U","11","11","","hanaU","hanaU","hanaU11-detaU11","619","41","whale","hanaU"
"<h1>どちらの単語が聞こえましたか</h1>","565","1","iden_exp","hana","deta","2","A","1","9","","hanaA","hanaA","hanaA01-detaU09","621","42","whale","hanaA"
"<h1>どちらの単語が聞こえましたか</h1>","577","0","iden_exp","hana","deta","2","U","1","3","","hanaU","hanaU","hanaU01-detaA03","623","42","whale","hanaU"
"<h1>どちらの単語が聞こえましたか</h1>","658","0","iden_exp","hana","deta","2","U","9","6","","hanaU","hanaU","hanaU09-detaU06","625","42","whale","hanaU"
"<h1>どちらの単語が聞こえましたか</h1>","752","0","iden_exp","hana","deta","2","A","3","9","","hanaA","hanaA","hanaA03-detaU09","627","43","whale","hanaA"
"<h1>どちらの単語が聞こえましたか</h1>","585","0","iden_exp","hana","deta","2","A","3","3","","hanaA","hanaU","hanaA03-detaA03","629","43","whale","hanaU"
"<h1>どちらの単語が聞こえましたか</h1>","956","1","iden_exp","hana","deta","2","A","5","9","","hanaA","hanaA","hanaA05-detaU09","631","43","whale","hanaA"
"<h1>どちらの単語が聞こえましたか</h1>","523","0","iden_exp","hana","deta","2","U","5","7","","hanaU","hanaU","hanaU05-detaU07","633","43","whale","hanaU"
"<h1>どちらの単語が聞こえましたか</h1>","700","0","iden_exp","hana","deta","2","U","6","5","","hanaU","hanaU","hanaU06-detaA05","635","43","whale","hanaU"
"<h1>どちらの単語が聞こえましたか</h1>","605","0","iden_exp","hana","deta","2","A","5","5","","hanaA","hanaU","hanaA05-detaA05","637","43","whale","hanaU"
"<h1>どちらの単語が聞こえましたか</h1>","564","0","iden_exp","hana","deta","2","A","3","1","","hanaA","hanaA","hanaA03-detaU01","639","43","whale","hanaA"
"<h1>どちらの単語が聞こえましたか</h1>","565","0","iden_exp","hana","deta","2","A","1","3","","hanaA","hanaU","hanaA01-detaA03","641","43","whale","hanaU"
"<h1>どちらの単語が聞こえましたか</h1>","573","0","iden_exp","hana","deta","2","A","11","5","","hanaA","hanaU","hanaA11-detaA05","643","43","whale","hanaU"
"<h1>どちらの単語が聞こえましたか</h1>","1300","0","iden_exp","hana","deta","2","U","3","1","","hanaU","hanaU","hanaU03-detaA01","645","43","whale","hanaU"
"<h1>どちらの単語が聞こえましたか</h1>","613","1","iden_exp","hana","deta","2","U","3","11","","hanaU","hanaU","hanaU03-detaA11","647","43","whale","hanaU"
"<h1>どちらの単語が聞こえましたか</h1>","705","0","iden_exp","hana","deta","2","U","5","5","","hanaU","hanaU","hanaU05-detaU05","649","44","whale","hanaU"
"<h1>どちらの単語が聞こえましたか</h1>","698","1","iden_exp","hana","deta","2","A","1","7","","hanaA","hanaA","hanaA01-detaU07","651","44","whale","hanaA"
"<h1>どちらの単語が聞こえましたか</h1>","658","1","iden_exp","hana","deta","2","U","3","9","","hanaU","hanaU","hanaU03-detaA09","653","44","whale","hanaU"
"<h1>どちらの単語が聞こえましたか</h1>","508","1","iden_exp","hana","deta","2","A","7","1","","hanaA","hanaU","hanaA07-detaA01","655","44","whale","hanaA"
"<h1>どちらの単語が聞こえましたか</h1>","538","1","iden_exp","hana","deta","2","U","6","7","","hanaU","hanaU","hanaU06-detaA07","657","44","whale","hanaU"
"<h1>どちらの単語が聞こえましたか</h1>","499","0","iden_exp","hana","deta","2","U","1","9","","hanaU","hanaU","hanaU01-detaA09","659","44","whale","hanaU"
"<h1>どちらの単語が聞こえましたか</h1>","562","1","iden_exp","hana","deta","2","U","7","11","","hanaU","hanaU","hanaU07-detaU11","661","44","whale","hanaU"
"<h1>どちらの単語が聞こえましたか</h1>","472","1","iden_exp","hana","deta","2","U","1","5","","hanaU","hanaU","hanaU01-detaU05","663","44","whale","hanaU"
"<h1>どちらの単語が聞こえましたか</h1>","529","0","iden_exp","hana","deta","2","U","5","9","","hanaU","hanaU","hanaU05-detaA09","665","44","whale","hanaU"
"<h1>どちらの単語が聞こえましたか</h1>","540","0","iden_exp","hana","deta","2","A","9","7","","hanaA","hanaU","hanaA09-detaA07","667","44","whale","hanaU"
"<h1>どちらの単語が聞こえましたか</h1>","782","1","iden_exp","hana","deta","2","A","7","9","","hanaA","hanaA","hanaA07-detaU09","669","44","whale","hanaA"
"<h1>どちらの単語が聞こえましたか</h1>","578","0","iden_exp","hana","deta","2","U","9","3","","hanaU","hanaU","hanaU09-detaU03","671","44","whale","hanaU"
"<h1>どちらの単語が聞こえましたか</h1>","764","0","iden_exp","hana","deta","2","A","5","1","","hanaA","hanaU","hanaA05-detaA01","673","44","whale","hanaU"
"<h1>どちらの単語が聞こえましたか</h1>","971","1","iden_exp","hana","deta","2","A","6","6","","hanaA","hanaA","hanaA06-detaU06","675","44","whale","hanaA"
"<h1>どちらの単語が聞こえましたか</h1>","835","0","iden_exp","hana","deta","2","U","9","7","","hanaU","hanaU","hanaU09-detaA07","677","44","whale","hanaU"
"<h1>どちらの単語が聞こえましたか</h1>","652","1","iden_exp","hana","deta","2","A","5","6","","hanaA","hanaA","hanaA05-detaU06","679","45","whale","hanaA"
"<h1>どちらの単語が聞こえましたか</h1>","952","1","iden_exp","hana","deta","2","A","11","7","","hanaA","hanaU","hanaA11-detaA07","681","45","whale","hanaA"
"<h1>どちらの単語が聞こえましたか</h1>","580","0","iden_exp","hana","deta","2","U","11","7","","hanaU","hanaU","hanaU11-detaU07","683","45","whale","hanaU"
"<h1>どちらの単語が聞こえましたか</h1>","583","1","iden_exp","hana","deta","2","A","1","11","","hanaA","hanaA","hanaA01-detaU11","685","45","whale","hanaA"
"<h1>どちらの単語が聞こえましたか</h1>","741","1","iden_exp","hana","deta","2","U","11","1","","hanaU","hanaU","hanaU11-detaU01","687","45","whale","hanaU"
"<h1>どちらの単語が聞こえましたか</h1>","542","0","iden_exp","hana","deta","2","A","1","7","","hanaA","hanaU","hanaA01-detaA07","689","45","whale","hanaU"
"<h1>どちらの単語が聞こえましたか</h1>","562","0","iden_exp","hana","deta","2","U","3","3","","hanaU","hanaU","hanaU03-detaU03","691","45","whale","hanaU"
"<h1>どちらの単語が聞こえましたか</h1>","690","0","iden_exp","hana","deta","2","U","11","3","","hanaU","hanaU","hanaU11-detaA03","693","45","whale","hanaU"
"<h1>どちらの単語が聞こえましたか</h1>","515","0","iden_exp","hana","deta","2","A","6","5","","hanaA","hanaA","hanaA06-detaU05","695","45","whale","hanaA"
"<h1>どちらの単語が聞こえましたか</h1>","839","0","iden_exp","hana","deta","2","U","7","3","","hanaU","hanaU","hanaU07-detaU03","697","45","whale","hanaU"
"<h1>どちらの単語が聞こえましたか</h1>","613","1","iden_exp","hana","deta","2","U","1","11","","hanaU","hanaU","hanaU01-detaU11","699","46","whale","hanaU"
"<h1>どちらの単語が聞こえましたか</h1>","470","1","iden_exp","hana","deta","2","U","1","9","","hanaU","hanaU","hanaU01-detaU09","701","46","whale","hanaU"
"<h1>どちらの単語が聞こえましたか</h1>","522","1","iden_exp","hana","deta","2","U","6","9","","hanaU","hanaU","hanaU06-detaA09","703","46","whale","hanaU"
"<h1>どちらの単語が聞こえましたか</h1>","561","1","iden_exp","hana","deta","2","U","5","5","","hanaU","hanaU","hanaU05-detaA05","705","46","whale","hanaU"
"<h1>どちらの単語が聞こえましたか</h1>","668","1","iden_exp","hana","deta","2","A","9","3","","hanaA","hanaU","hanaA09-detaA03","707","46","whale","hanaA"
"<h1>どちらの単語が聞こえましたか</h1>","593","0","iden_exp","hana","deta","2","U","9","6","","hanaU","hanaU","hanaU09-detaA06","709","46","whale","hanaU"
"<h1>どちらの単語が聞こえましたか</h1>","631","1","iden_exp","hana","deta","2","A","3","5","","hanaA","hanaU","hanaA03-detaA05","711","46","whale","hanaA"
"<h1>どちらの単語が聞こえましたか</h1>","471","1","iden_exp","hana","deta","2","A","6","9","","hanaA","hanaA","hanaA06-detaU09","713","46","whale","hanaA"
"<h1>どちらの単語が聞こえましたか</h1>","574","0","iden_exp","hana","deta","2","U","6","6","","hanaU","hanaU","hanaU06-detaU06","715","46","whale","hanaU"
"<h1>どちらの単語が聞こえましたか</h1>","699","1","iden_exp","hana","deta","2","A","5","11","","hanaA","hanaA","hanaA05-detaU11","717","46","whale","hanaA"
"<h1>どちらの単語が聞こえましたか</h1>","794","1","iden_exp","hana","deta","2","A","1","3","","hanaA","hanaA","hanaA01-detaU03","719","46","whale","hanaA"
"<h1>どちらの単語が聞こえましたか</h1>","529","1","iden_exp","hana","deta","2","U","3","7","","hanaU","hanaU","hanaU03-detaU07","721","46","whale","hanaU"
"<h1>どちらの単語が聞こえましたか</h1>","531","0","iden_exp","hana","deta","2","U","5","1","","hanaU","hanaU","hanaU05-detaA01","723","46","whale","hanaU"
"<h1>どちらの単語が聞こえましたか</h1>","537","0","iden_exp","hana","deta","2","A","6","3","","hanaA","hanaA","hanaA06-detaU03","725","46","whale","hanaA"
"<h1>どちらの単語が聞こえましたか</h1>","529","0","iden_exp","hana","deta","2","U","11","1","","hanaU","hanaU","hanaU11-detaA01","727","46","whale","hanaU"
"<h1>どちらの単語が聞こえましたか</h1>","576","0","iden_exp","hana","deta","2","A","5","3","","hanaA","hanaA","hanaA05-detaU03","729","47","whale","hanaA"
"<h1>どちらの単語が聞こえましたか</h1>","613","0","iden_exp","hana","deta","2","U","9","11","","hanaU","hanaU","hanaU09-detaU11","731","47","whale","hanaU"
"<h1>どちらの単語が聞こえましたか</h1>","522","0","iden_exp","hana","deta","2","A","7","5","","hanaA","hanaU","hanaA07-detaA05","733","47","whale","hanaU"
"<h1>どちらの単語が聞こえましたか</h1>","498","0","iden_exp","hana","deta","2","U","7","1","","hanaU","hanaU","hanaU07-detaA01","735","47","whale","hanaU"
"<h1>どちらの単語が聞こえましたか</h1>","554","1","iden_exp","hana","deta","2","U","7","5","","hanaU","hanaU","hanaU07-detaA05","737","47","whale","hanaU"
"<h1>どちらの単語が聞こえましたか</h1>","887","1","iden_exp","hana","deta","2","A","1","1","","hanaA","hanaA","hanaA01-detaU01","739","47","whale","hanaA"
"<h1>どちらの単語が聞こえましたか</h1>","623","0","iden_exp","hana","deta","2","A","6","6","","hanaA","hanaU","hanaA06-detaA06","741","47","whale","hanaU"
"<h1>どちらの単語が聞こえましたか</h1>","571","0","iden_exp","hana","deta","2","U","6","3","","hanaU","hanaU","hanaU06-detaU03","743","47","whale","hanaU"
"<h1>どちらの単語が聞こえましたか</h1>","919","0","iden_exp","hana","deta","2","A","1","6","","hanaA","hanaA","hanaA01-detaU06","745","47","whale","hanaA"
"<h1>どちらの単語が聞こえましたか</h1>","607","1","iden_exp","hana","deta","2","A","5","9","","hanaA","hanaU","hanaA05-detaA09","747","47","whale","hanaA"
"<h1>どちらの単語が聞こえましたか</h1>","707","1","iden_exp","hana","deta","2","U","11","5","","hanaU","hanaU","hanaU11-detaU05","749","47","whale","hanaU"
"<h1>どちらの単語が聞こえましたか</h1>","382","1","iden_exp","hana","deta","2","A","6","7","","hanaA","hanaU","hanaA06-detaA07","751","47","whale","hanaA"
"<h1>どちらの単語が聞こえましたか</h1>","546","0","iden_exp","hana","deta","2","A","11","3","","hanaA","hanaA","hanaA11-detaU03","753","48","whale","hanaA"
"<h1>どちらの単語が聞こえましたか</h1>","502","1","iden_exp","hana","deta","2","U","1","5","","hanaU","hanaU","hanaU01-detaA05","755","48","whale","hanaU"
"<h1>どちらの単語が聞こえましたか</h1>","665","1","iden_exp","hana","deta","2","A","5","7","","hanaA","hanaU","hanaA05-detaA07","757","48","whale","hanaA"
"<h1>どちらの単語が聞こえましたか</h1>","590","0","iden_exp","hana","deta","2","A","11","9","","hanaA","hanaA","hanaA11-detaU09","759","48","whale","hanaA"
"<h1>どちらの単語が聞こえましたか</h1>","679","1","iden_exp","hana","deta","2","A","7","7","","hanaA","hanaU","hanaA07-detaA07","761","48","whale","hanaA"
"<h1>どちらの単語が聞こえましたか</h1>","595","1","iden_exp","hana","deta","2","U","9","7","","hanaU","hanaU","hanaU09-detaU07","763","48","whale","hanaU"
"<h1>どちらの単語が聞こえましたか</h1>","489","1","iden_exp","hana","deta","2","U","9","3","","hanaU","hanaU","hanaU09-detaA03","765","48","whale","hanaU"
"<h1>どちらの単語が聞こえましたか</h1>","563","0","iden_exp","hana","deta","2","A","9","3","","hanaA","hanaA","hanaA09-detaU03","767","48","whale","hanaA"
"<h1>どちらの単語が聞こえましたか</h1>","521","1","iden_exp","hana","deta","2","A","5","6","","hanaA","hanaU","hanaA05-detaA06","769","48","whale","hanaA"
"<h1>どちらの単語が聞こえましたか</h1>","459","1","iden_exp","hana","deta","2","A","11","1","","hanaA","hanaU","hanaA11-detaA01","771","48","whale","hanaA"
"<h1>どちらの単語が聞こえましたか</h1>","526","0","iden_exp","hana","deta","2","U","9","5","","hanaU","hanaU","hanaU09-detaU05","773","48","whale","hanaU"
"<h1>どちらの単語が聞こえましたか</h1>","562","0","iden_exp","hana","deta","2","A","6","3","","hanaA","hanaU","hanaA06-detaA03","775","48","whale","hanaU"
"<h1>どちらの単語が聞こえましたか</h1>","930","0","iden_exp","hana","deta","2","A","9","6","","hanaA","hanaA","hanaA09-detaU06","777","48","whale","hanaA"
"<h1>どちらの単語が聞こえましたか</h1>","604","1","iden_exp","hana","deta","2","U","7","11","","hanaU","hanaU","hanaU07-detaA11","779","48","whale","hanaU"
"<h1>どちらの単語が聞こえましたか</h1>","956","1","iden_exp","hana","deta","2","A","11","3","","hanaA","hanaU","hanaA11-detaA03","781","49","whale","hanaA"
"<h1>どちらの単語が聞こえましたか</h1>","694","1","iden_exp","hana","deta","2","U","3","1","","hanaU","hanaU","hanaU03-detaU01","783","49","whale","hanaU"
"<h1>どちらの単語が聞こえましたか</h1>","573","0","iden_exp","hana","deta","2","U","5","11","","hanaU","hanaU","hanaU05-detaU11","785","49","whale","hanaU"
"<h1>どちらの単語が聞こえましたか</h1>","513","1","iden_exp","hana","deta","2","A","11","11","","hanaA","hanaA","hanaA11-detaU11","787","49","whale","hanaA"
"<h1>どちらの単語が聞こえましたか</h1>","479","0","iden_exp","hana","deta","2","U","7","6","","hanaU","hanaU","hanaU07-detaA06","789","49","whale","hanaU"
"<h1>どちらの単語が聞こえましたか</h1>","558","1","iden_exp","hana","deta","2","A","1","11","","hanaA","hanaU","hanaA01-detaA11","791","49","whale","hanaA"
"<h1>どちらの単語が聞こえましたか</h1>","457","1","iden_exp","hana","deta","2","A","5","1","","hanaA","hanaA","hanaA05-detaU01","793","49","whale","hanaA"
"<h1>どちらの単語が聞こえましたか</h1>","531","1","iden_exp","hana","deta","2","A","5","3","","hanaA","hanaU","hanaA05-detaA03","795","49","whale","hanaA"
"<h1>どちらの単語が聞こえましたか</h1>","709","0","iden_exp","hana","deta","2","A","6","1","","hanaA","hanaA","hanaA06-detaU01","797","49","whale","hanaA"
"<h1>どちらの単語が聞こえましたか</h1>","504","0","iden_exp","hana","deta","2","A","11","6","","hanaA","hanaU","hanaA11-detaA06","799","49","whale","hanaU"
"<h1>どちらの単語が聞こえましたか</h1>","488","0","iden_exp","hana","deta","2","A","11","5","","hanaA","hanaA","hanaA11-detaU05","801","49","whale","hanaA"
"<h1>どちらの単語が聞こえましたか</h1>","537","0","iden_exp","hana","deta","2","U","1","6","","hanaU","hanaU","hanaU01-detaU06","803","50","whale","hanaU"
"<h1>どちらの単語が聞こえましたか</h1>","598","0","iden_exp","hana","deta","2","U","6","5","","hanaU","hanaU","hanaU06-detaU05","805","50","whale","hanaU"
"<h1>どちらの単語が聞こえましたか</h1>","502","1","iden_exp","hana","deta","2","U","6","7","","hanaU","hanaU","hanaU06-detaU07","807","50","whale","hanaU"
"<h1>どちらの単語が聞こえましたか</h1>","722","1","iden_exp","hana","deta","2","U","6","11","","hanaU","hanaU","hanaU06-detaA11","809","50","whale","hanaU"
