"stimulus","rt","response","phase","word","carrier","block","wordAccent","wordAccentStep","carrierAccent","carrierAccentStep","option_0","option_1","sound","trial_index","time_elapsed","participantID","answer"
"<h1>どちらの単語が聞こえましたか</h1>","726","0","practice","hana","deta","2","A","1","A","1","hanaA","hanaU","hanaA01-detaA01","4","6","people children author function","hanaA"
"<h1>どちらの単語が聞こえましたか</h1>","882","0","practice","hana","deta","2","A","11","A","11","hanaA","hanaU","hanaA11-detaA11","6","6","people children author function","hanaA"
"<h1>どちらの単語が聞こえましたか</h1>","577","1","practice","hana","deta","2","U","1","U","1","hanaA","hanaU","hanaU01-detaU01","8","6","people children author function","hanaU"
"<h1>どちらの単語が聞こえましたか</h1>","615","1","practice","hana","deta","2","U","11","U","11","hanaA","hanaU","hanaU11-detaU11","10","6","people children author function","hanaU"
"<h1>どちらの単語が聞こえましたか</h1>","572","1","practice","hana","deta","2","A","1","U","1","hanaU","hanaA","hanaA01-detaU01","13","7","people children author function","hanaU"
"<h1>どちらの単語が聞こえましたか</h1>","750","1","practice","hana","deta","2","A","11","U","11","hanaU","hanaA","hanaA11-detaU11","15","7","people children author function","hanaU"
"<h1>どちらの単語が聞こえましたか</h1>","513","1","practice","hana","deta","2","U","1","A","1","hanaU","hanaA","hanaU01-detaA01","17","7","people children author function","hanaU"
"<h1>どちらの単語が聞こえましたか</h1>","600","1","practice","hana","deta","2","U","11","A","11","hanaU","hanaA","hanaU11-detaA11","19","7","people children author function","hanaU"
"<h1>どちらの単語が聞こえましたか</h1>","645","0","iden_exp","hana","deta","1","U","5","U","1","hanaA","hanaU","hanaU05-detaU01","22","7","people children author function","hanaA"
"<h1>どちらの単語が聞こえましたか</h1>","506","1","iden_exp","hana","deta","1","A","3","A","5","hanaA","hanaU","hanaA03-detaA05","24","7","people children author function","hanaU"
"<h1>どちらの単語が聞こえましたか</h1>","747","1","iden_exp","hana","deta","1","U","1","A","5","hanaA","hanaU","hanaU01-detaA05","26","7","people children author function","hanaU"
"<h1>どちらの単語が聞こえましたか</h1>","923","0","iden_exp","hana","deta","1","A","1","A","11","hanaA","hanaU","hanaA01-detaA11","28","7","people children author function","hanaA"
"<h1>どちらの単語が聞こえましたか</h1>","662","1","iden_exp","hana","deta","1","A","11","U","7","hanaA","hanaU","hanaA11-detaU07","30","7","people children author function","hanaU"
"<h1>どちらの単語が聞こえましたか</h1>","1118","0","iden_exp","hana","deta","1","A","3","A","7","hanaA","hanaU","hanaA03-detaA07","32","7","people children author function","hanaA"
"<h1>どちらの単語が聞こえましたか</h1>","590","0","iden_exp","hana","deta","1","A","5","A","7","hanaA","hanaU","hanaA05-detaA07","34","8","people children author function","hanaA"
"<h1>どちらの単語が聞こえましたか</h1>","578","1","iden_exp","hana","deta","1","A","5","U","7","hanaA","hanaU","hanaA05-detaU07","36","8","people children author function","hanaU"
"<h1>どちらの単語が聞こえましたか</h1>","667","1","iden_exp","hana","deta","1","A","7","A","1","hanaA","hanaU","hanaA07-detaA01","38","8","people children author function","hanaU"
"<h1>どちらの単語が聞こえましたか</h1>","825","0","iden_exp","hana","deta","1","A","11","U","9","hanaA","hanaU","hanaA11-detaU09","40","8","people children author function","hanaA"
"<h1>どちらの単語が聞こえましたか</h1>","725","1","iden_exp","hana","deta","1","U","9","A","6","hanaA","hanaU","hanaU09-detaA06","42","8","people children author function","hanaU"
"<h1>どちらの単語が聞こえましたか</h1>","585","0","iden_exp","hana","deta","1","U","5","U","3","hanaA","hanaU","hanaU05-detaU03","44","8","people children author function","hanaA"
"<h1>どちらの単語が聞こえましたか</h1>","530","0","iden_exp","hana","deta","1","A","6","A","7","hanaA","hanaU","hanaA06-detaA07","46","8","people children author function","hanaA"
"<h1>どちらの単語が聞こえましたか</h1>","551","1","iden_exp","hana","deta","1","U","3","U","11","hanaA","hanaU","hanaU03-detaU11","48","8","people children author function","hanaU"
"<h1>どちらの単語が聞こえましたか</h1>","595","0","iden_exp","hana","deta","1","U","3","A","7","hanaA","hanaU","hanaU03-detaA07","50","8","people children author function","hanaA"
"<h1>どちらの単語が聞こえましたか</h1>","1039","1","iden_exp","hana","deta","1","A","6","U","5","hanaA","hanaU","hanaA06-detaU05","52","8","people children author function","hanaU"
"<h1>どちらの単語が聞こえましたか</h1>","463","1","iden_exp","hana","deta","1","U","3","A","5","hanaA","hanaU","hanaU03-detaA05","54","8","people children author function","hanaU"
"<h1>どちらの単語が聞こえましたか</h1>","519","0","iden_exp","hana","deta","1","A","6","U","9","hanaA","hanaU","hanaA06-detaU09","56","9","people children author function","hanaA"
"<h1>どちらの単語が聞こえましたか</h1>","484","1","iden_exp","hana","deta","1","A","5","A","9","hanaA","hanaU","hanaA05-detaA09","58","9","people children author function","hanaU"
"<h1>どちらの単語が聞こえましたか</h1>","839","0","iden_exp","hana","deta","1","U","1","U","3","hanaA","hanaU","hanaU01-detaU03","60","9","people children author function","hanaA"
"<h1>どちらの単語が聞こえましたか</h1>","603","0","iden_exp","hana","deta","1","U","11","U","9","hanaA","hanaU","hanaU11-detaU09","62","9","people children author function","hanaA"
"<h1>どちらの単語が聞こえましたか</h1>","569","1","iden_exp","hana","deta","1","A","6","A","11","hanaA","hanaU","hanaA06-detaA11","64","9","people children author function","hanaU"
"<h1>どちらの単語が聞こえましたか</h1>","562","0","iden_exp","hana","deta","1","A","6","U","7","hanaA","hanaU","hanaA06-detaU07","66","9","people children author function","hanaA"
"<h1>どちらの単語が聞こえましたか</h1>","837","1","iden_exp","hana","deta","1","A","6","A","9","hanaA","hanaU","hanaA06-detaA09","68","9","people children author function","hanaU"
"<h1>どちらの単語が聞こえましたか</h1>","533","0","iden_exp","hana","deta","1","U","7","U","3","hanaA","hanaU","hanaU07-detaU03","70","9","people children author function","hanaA"
"<h1>どちらの単語が聞こえましたか</h1>","743","1","iden_exp","hana","deta","1","A","1","A","7","hanaA","hanaU","hanaA01-detaA07","72","9","people children author function","hanaU"
"<h1>どちらの単語が聞こえましたか</h1>","802","1","iden_exp","hana","deta","1","A","6","A","5","hanaA","hanaU","hanaA06-detaA05","74","9","people children author function","hanaU"
"<h1>どちらの単語が聞こえましたか</h1>","479","0","iden_exp","hana","deta","1","A","11","A","5","hanaA","hanaU","hanaA11-detaA05","76","9","people children author function","hanaA"
"<h1>どちらの単語が聞こえましたか</h1>","694","1","iden_exp","hana","deta","1","A","5","A","3","hanaA","hanaU","hanaA05-detaA03","78","9","people children author function","hanaU"
"<h1>どちらの単語が聞こえましたか</h1>","536","1","iden_exp","hana","deta","1","A","3","A","3","hanaA","hanaU","hanaA03-detaA03","80","9","people children author function","hanaU"
"<h1>どちらの単語が聞こえましたか</h1>","802","0","iden_exp","hana","deta","1","U","5","A","3","hanaA","hanaU","hanaU05-detaA03","82","9","people children author function","hanaA"
"<h1>どちらの単語が聞こえましたか</h1>","555","0","iden_exp","hana","deta","1","A","6","U","1","hanaA","hanaU","hanaA06-detaU01","84","10","people children author function","hanaA"
"<h1>どちらの単語が聞こえましたか</h1>","775","0","iden_exp","hana","deta","1","A","3","U","6","hanaA","hanaU","hanaA03-detaU06","86","10","people children author function","hanaA"
"<h1>どちらの単語が聞こえましたか</h1>","604","0","iden_exp","hana","deta","1","U","6","A","6","hanaA","hanaU","hanaU06-detaA06","88","10","people children author function","hanaA"
"<h1>どちらの単語が聞こえましたか</h1>","711","0","iden_exp","hana","deta","1","A","9","U","7","hanaA","hanaU","hanaA09-detaU07","90","10","people children author function","hanaA"
"<h1>どちらの単語が聞こえましたか</h1>","662","0","iden_exp","hana","deta","1","U","5","A","11","hanaA","hanaU","hanaU05-detaA11","92","10","people children author function","hanaA"
"<h1>どちらの単語が聞こえましたか</h1>","476","1","iden_exp","hana","deta","1","A","3","A","6","hanaA","hanaU","hanaA03-detaA06","94","10","people children author function","hanaU"
"<h1>どちらの単語が聞こえましたか</h1>","656","1","iden_exp","hana","deta","1","U","11","U","5","hanaA","hanaU","hanaU11-detaU05","96","10","people children author function","hanaU"
"<h1>どちらの単語が聞こえましたか</h1>","541","0","iden_exp","hana","deta","1","U","1","A","7","hanaA","hanaU","hanaU01-detaA07","98","10","people children author function","hanaA"
"<h1>どちらの単語が聞こえましたか</h1>","664","0","iden_exp","hana","deta","1","A","9","U","6","hanaA","hanaU","hanaA09-detaU06","100","10","people children author function","hanaA"
"<h1>どちらの単語が聞こえましたか</h1>","637","0","iden_exp","hana","deta","1","A","3","U","9","hanaA","hanaU","hanaA03-detaU09","102","10","people children author function","hanaA"
"<h1>どちらの単語が聞こえましたか</h1>","640","0","iden_exp","hana","deta","1","A","7","A","9","hanaA","hanaU","hanaA07-detaA09","104","10","people children author function","hanaA"
"<h1>どちらの単語が聞こえましたか</h1>","503","1","iden_exp","hana","deta","1","U","7","A","9","hanaA","hanaU","hanaU07-detaA09","106","10","people children author function","hanaU"
"<h1>どちらの単語が聞こえましたか</h1>","536","0","iden_exp","hana","deta","1","U","5","A","6","hanaA","hanaU","hanaU05-detaA06","108","10","people children author function","hanaA"
"<h1>どちらの単語が聞こえましたか</h1>","612","1","iden_exp","hana","deta","1","U","9","A","11","hanaA","hanaU","hanaU09-detaA11","110","10","people children author function","hanaU"
"<h1>どちらの単語が聞こえましたか</h1>","644","0","iden_exp","hana","deta","1","U","9","U","5","hanaA","hanaU","hanaU09-detaU05","112","11","people children author function","hanaA"
"<h1>どちらの単語が聞こえましたか</h1>","482","1","iden_exp","hana","deta","1","U","9","U","7","hanaA","hanaU","hanaU09-detaU07","114","11","people children author function","hanaU"
"<h1>どちらの単語が聞こえましたか</h1>","616","0","iden_exp","hana","deta","1","U","9","A","5","hanaA","hanaU","hanaU09-detaA05","116","11","people children author function","hanaA"
"<h1>どちらの単語が聞こえましたか</h1>","736","0","iden_exp","hana","deta","1","A","5","U","11","hanaA","hanaU","hanaA05-detaU11","118","11","people children author function","hanaA"
"<h1>どちらの単語が聞こえましたか</h1>","571","1","iden_exp","hana","deta","1","A","9","A","11","hanaA","hanaU","hanaA09-detaA11","120","11","people children author function","hanaU"
"<h1>どちらの単語が聞こえましたか</h1>","836","0","iden_exp","hana","deta","1","U","9","U","3","hanaA","hanaU","hanaU09-detaU03","122","11","people children author function","hanaA"
"<h1>どちらの単語が聞こえましたか</h1>","590","0","iden_exp","hana","deta","1","A","5","A","6","hanaA","hanaU","hanaA05-detaA06","124","11","people children author function","hanaA"
"<h1>どちらの単語が聞こえましたか</h1>","540","0","iden_exp","hana","deta","1","A","1","U","6","hanaA","hanaU","hanaA01-detaU06","126","11","people children author function","hanaA"
"<h1>どちらの単語が聞こえましたか</h1>","497","0","iden_exp","hana","deta","1","A","6","A","3","hanaA","hanaU","hanaA06-detaA03","128","11","people children author function","hanaA"
"<h1>どちらの単語が聞こえましたか</h1>","711","1","iden_exp","hana","deta","1","A","6","U","11","hanaA","hanaU","hanaA06-detaU11","130","11","people children author function","hanaU"
"<h1>どちらの単語が聞こえましたか</h1>","610","0","iden_exp","hana","deta","1","U","1","A","11","hanaA","hanaU","hanaU01-detaA11","132","11","people children author function","hanaA"
"<h1>どちらの単語が聞こえましたか</h1>","665","1","iden_exp","hana","deta","1","U","6","U","7","hanaA","hanaU","hanaU06-detaU07","134","11","people children author function","hanaU"
"<h1>どちらの単語が聞こえましたか</h1>","604","1","iden_exp","hana","deta","1","A","11","U","6","hanaA","hanaU","hanaA11-detaU06","136","11","people children author function","hanaU"
"<h1>どちらの単語が聞こえましたか</h1>","518","0","iden_exp","hana","deta","1","A","1","A","6","hanaA","hanaU","hanaA01-detaA06","138","11","people children author function","hanaA"
"<h1>どちらの単語が聞こえましたか</h1>","462","1","iden_exp","hana","deta","1","U","1","U","7","hanaA","hanaU","hanaU01-detaU07","140","11","people children author function","hanaU"
"<h1>どちらの単語が聞こえましたか</h1>","543","1","iden_exp","hana","deta","1","A","7","U","11","hanaA","hanaU","hanaA07-detaU11","142","11","people children author function","hanaU"
"<h1>どちらの単語が聞こえましたか</h1>","471","1","iden_exp","hana","deta","1","A","11","U","3","hanaA","hanaU","hanaA11-detaU03","144","12","people children author function","hanaU"
"<h1>どちらの単語が聞こえましたか</h1>","560","0","iden_exp","hana","deta","1","A","6","U","3","hanaA","hanaU","hanaA06-detaU03","146","12","people children author function","hanaA"
"<h1>どちらの単語が聞こえましたか</h1>","946","0","iden_exp","hana","deta","1","A","11","U","5","hanaA","hanaU","hanaA11-detaU05","148","12","people children author function","hanaA"
"<h1>どちらの単語が聞こえましたか</h1>","495","0","iden_exp","hana","deta","1","U","6","A","5","hanaA","hanaU","hanaU06-detaA05","150","12","people children author function","hanaA"
"<h1>どちらの単語が聞こえましたか</h1>","821","0","iden_exp","hana","deta","1","A","7","A","3","hanaA","hanaU","hanaA07-detaA03","152","12","people children author function","hanaA"
"<h1>どちらの単語が聞こえましたか</h1>","683","0","iden_exp","hana","deta","1","U","9","U","9","hanaA","hanaU","hanaU09-detaU09","154","13","people children author function","hanaA"
"<h1>どちらの単語が聞こえましたか</h1>","569","1","iden_exp","hana","deta","1","U","3","A","9","hanaA","hanaU","hanaU03-detaA09","156","13","people children author function","hanaU"
"<h1>どちらの単語が聞こえましたか</h1>","638","0","iden_exp","hana","deta","1","U","7","U","11","hanaA","hanaU","hanaU07-detaU11","158","13","people children author function","hanaA"
"<h1>どちらの単語が聞こえましたか</h1>","589","1","iden_exp","hana","deta","1","U","6","A","1","hanaA","hanaU","hanaU06-detaA01","160","13","people children author function","hanaU"
"<h1>どちらの単語が聞こえましたか</h1>","785","0","iden_exp","hana","deta","1","A","6","U","6","hanaA","hanaU","hanaA06-detaU06","162","13","people children author function","hanaA"
"<h1>どちらの単語が聞こえましたか</h1>","724","1","iden_exp","hana","deta","1","U","7","A","7","hanaA","hanaU","hanaU07-detaA07","164","13","people children author function","hanaU"
"<h1>どちらの単語が聞こえましたか</h1>","857","1","iden_exp","hana","deta","1","A","5","U","1","hanaA","hanaU","hanaA05-detaU01","166","13","people children author function","hanaU"
"<h1>どちらの単語が聞こえましたか</h1>","556","0","iden_exp","hana","deta","1","A","1","U","9","hanaA","hanaU","hanaA01-detaU09","168","13","people children author function","hanaA"
"<h1>どちらの単語が聞こえましたか</h1>","531","0","iden_exp","hana","deta","1","U","6","U","3","hanaA","hanaU","hanaU06-detaU03","170","13","people children author function","hanaA"
"<h1>どちらの単語が聞こえましたか</h1>","540","1","iden_exp","hana","deta","1","U","6","U","9","hanaA","hanaU","hanaU06-detaU09","172","13","people children author function","hanaU"
"<h1>どちらの単語が聞こえましたか</h1>","641","0","iden_exp","hana","deta","1","A","6","A","1","hanaA","hanaU","hanaA06-detaA01","174","13","people children author function","hanaA"
"<h1>どちらの単語が聞こえましたか</h1>","852","1","iden_exp","hana","deta","1","U","3","A","1","hanaA","hanaU","hanaU03-detaA01","176","13","people children author function","hanaU"
"<h1>どちらの単語が聞こえましたか</h1>","774","1","iden_exp","hana","deta","1","A","9","U","11","hanaA","hanaU","hanaA09-detaU11","178","13","people children author function","hanaU"
"<h1>どちらの単語が聞こえましたか</h1>","535","0","iden_exp","hana","deta","1","A","5","U","9","hanaA","hanaU","hanaA05-detaU09","180","13","people children author function","hanaA"
"<h1>どちらの単語が聞こえましたか</h1>","696","0","iden_exp","hana","deta","1","A","7","U","3","hanaA","hanaU","hanaA07-detaU03","182","13","people children author function","hanaA"
"<h1>どちらの単語が聞こえましたか</h1>","618","1","iden_exp","hana","deta","1","A","1","A","9","hanaA","hanaU","hanaA01-detaA09","184","14","people children author function","hanaU"
"<h1>どちらの単語が聞こえましたか</h1>","607","1","iden_exp","hana","deta","1","U","1","U","1","hanaA","hanaU","hanaU01-detaU01","186","14","people children author function","hanaU"
"<h1>どちらの単語が聞こえましたか</h1>","884","0","iden_exp","hana","deta","1","U","3","A","6","hanaA","hanaU","hanaU03-detaA06","188","14","people children author function","hanaA"
"<h1>どちらの単語が聞こえましたか</h1>","567","0","iden_exp","hana","deta","1","U","7","U","6","hanaA","hanaU","hanaU07-detaU06","190","14","people children author function","hanaA"
"<h1>どちらの単語が聞こえましたか</h1>","617","0","iden_exp","hana","deta","1","A","5","U","6","hanaA","hanaU","hanaA05-detaU06","192","14","people children author function","hanaA"
"<h1>どちらの単語が聞こえましたか</h1>","808","0","iden_exp","hana","deta","1","A","9","A","9","hanaA","hanaU","hanaA09-detaA09","194","14","people children author function","hanaA"
"<h1>どちらの単語が聞こえましたか</h1>","560","1","iden_exp","hana","deta","1","U","3","A","11","hanaA","hanaU","hanaU03-detaA11","196","14","people children author function","hanaU"
"<h1>どちらの単語が聞こえましたか</h1>","500","0","iden_exp","hana","deta","1","U","3","U","5","hanaA","hanaU","hanaU03-detaU05","198","14","people children author function","hanaA"
"<h1>どちらの単語が聞こえましたか</h1>","609","1","iden_exp","hana","deta","1","U","9","A","7","hanaA","hanaU","hanaU09-detaA07","200","14","people children author function","hanaU"
"<h1>どちらの単語が聞こえましたか</h1>","695","0","iden_exp","hana","deta","1","A","9","U","9","hanaA","hanaU","hanaA09-detaU09","202","14","people children author function","hanaA"
"<h1>どちらの単語が聞こえましたか</h1>","528","0","iden_exp","hana","deta","1","A","3","A","1","hanaA","hanaU","hanaA03-detaA01","204","14","people children author function","hanaA"
"<h1>どちらの単語が聞こえましたか</h1>","823","1","iden_exp","hana","deta","1","A","1","A","3","hanaA","hanaU","hanaA01-detaA03","206","14","people children author function","hanaU"
"<h1>どちらの単語が聞こえましたか</h1>","532","1","iden_exp","hana","deta","1","U","1","U","6","hanaA","hanaU","hanaU01-detaU06","208","14","people children author function","hanaU"
"<h1>どちらの単語が聞こえましたか</h1>","624","1","iden_exp","hana","deta","1","A","7","A","11","hanaA","hanaU","hanaA07-detaA11","210","14","people children author function","hanaU"
"<h1>どちらの単語が聞こえましたか</h1>","727","1","iden_exp","hana","deta","1","U","7","A","3","hanaA","hanaU","hanaU07-detaA03","212","14","people children author function","hanaU"
"<h1>どちらの単語が聞こえましたか</h1>","649","1","iden_exp","hana","deta","1","A","5","A","5","hanaA","hanaU","hanaA05-detaA05","214","14","people children author function","hanaU"
"<h1>どちらの単語が聞こえましたか</h1>","536","1","iden_exp","hana","deta","1","U","7","A","5","hanaA","hanaU","hanaU07-detaA05","216","15","people children author function","hanaU"
"<h1>どちらの単語が聞こえましたか</h1>","540","0","iden_exp","hana","deta","1","U","3","U","6","hanaA","hanaU","hanaU03-detaU06","218","15","people children author function","hanaA"
"<h1>どちらの単語が聞こえましたか</h1>","528","0","iden_exp","hana","deta","1","U","11","U","3","hanaA","hanaU","hanaU11-detaU03","220","15","people children author function","hanaA"
"<h1>どちらの単語が聞こえましたか</h1>","646","0","iden_exp","hana","deta","1","A","3","U","1","hanaA","hanaU","hanaA03-detaU01","222","15","people children author function","hanaA"
"<h1>どちらの単語が聞こえましたか</h1>","740","0","iden_exp","hana","deta","1","A","7","A","7","hanaA","hanaU","hanaA07-detaA07","224","15","people children author function","hanaA"
"<h1>どちらの単語が聞こえましたか</h1>","578","1","iden_exp","hana","deta","1","U","11","U","1","hanaA","hanaU","hanaU11-detaU01","226","15","people children author function","hanaU"
"<h1>どちらの単語が聞こえましたか</h1>","654","1","iden_exp","hana","deta","1","A","11","A","9","hanaA","hanaU","hanaA11-detaA09","228","15","people children author function","hanaU"
"<h1>どちらの単語が聞こえましたか</h1>","1023","0","iden_exp","hana","deta","1","A","7","U","5","hanaA","hanaU","hanaA07-detaU05","230","15","people children author function","hanaA"
"<h1>どちらの単語が聞こえましたか</h1>","616","0","iden_exp","hana","deta","1","A","7","A","5","hanaA","hanaU","hanaA07-detaA05","232","15","people children author function","hanaA"
"<h1>どちらの単語が聞こえましたか</h1>","579","1","iden_exp","hana","deta","1","U","9","U","11","hanaA","hanaU","hanaU09-detaU11","234","15","people children author function","hanaU"
"<h1>どちらの単語が聞こえましたか</h1>","514","0","iden_exp","hana","deta","1","U","5","A","5","hanaA","hanaU","hanaU05-detaA05","236","15","people children author function","hanaA"
"<h1>どちらの単語が聞こえましたか</h1>","636","0","iden_exp","hana","deta","1","U","11","A","5","hanaA","hanaU","hanaU11-detaA05","238","16","people children author function","hanaA"
"<h1>どちらの単語が聞こえましたか</h1>","632","0","iden_exp","hana","deta","1","U","9","A","3","hanaA","hanaU","hanaU09-detaA03","240","16","people children author function","hanaA"
"<h1>どちらの単語が聞こえましたか</h1>","436","1","iden_exp","hana","deta","1","U","6","A","3","hanaA","hanaU","hanaU06-detaA03","242","16","people children author function","hanaU"
"<h1>どちらの単語が聞こえましたか</h1>","587","0","iden_exp","hana","deta","1","A","11","U","11","hanaA","hanaU","hanaA11-detaU11","244","16","people children author function","hanaA"
"<h1>どちらの単語が聞こえましたか</h1>","498","0","iden_exp","hana","deta","1","A","5","U","3","hanaA","hanaU","hanaA05-detaU03","246","16","people children author function","hanaA"
"<h1>どちらの単語が聞こえましたか</h1>","686","0","iden_exp","hana","deta","1","A","5","A","11","hanaA","hanaU","hanaA05-detaA11","248","16","people children author function","hanaA"
"<h1>どちらの単語が聞こえましたか</h1>","564","0","iden_exp","hana","deta","1","A","11","A","7","hanaA","hanaU","hanaA11-detaA07","250","17","people children author function","hanaA"
"<h1>どちらの単語が聞こえましたか</h1>","452","1","iden_exp","hana","deta","1","A","7","U","7","hanaA","hanaU","hanaA07-detaU07","252","17","people children author function","hanaU"
"<h1>どちらの単語が聞こえましたか</h1>","552","1","iden_exp","hana","deta","1","U","3","A","3","hanaA","hanaU","hanaU03-detaA03","254","17","people children author function","hanaU"
"<h1>どちらの単語が聞こえましたか</h1>","463","0","iden_exp","hana","deta","1","U","5","U","11","hanaA","hanaU","hanaU05-detaU11","256","17","people children author function","hanaA"
"<h1>どちらの単語が聞こえましたか</h1>","626","0","iden_exp","hana","deta","1","U","6","A","11","hanaA","hanaU","hanaU06-detaA11","258","18","people children author function","hanaA"
"<h1>どちらの単語が聞こえましたか</h1>","495","1","iden_exp","hana","deta","1","A","5","U","5","hanaA","hanaU","hanaA05-detaU05","260","18","people children author function","hanaU"
"<h1>どちらの単語が聞こえましたか</h1>","870","1","iden_exp","hana","deta","1","U","5","U","5","hanaA","hanaU","hanaU05-detaU05","262","18","people children author function","hanaU"
"<h1>どちらの単語が聞こえましたか</h1>","694","1","iden_exp","hana","deta","1","U","6","U","11","hanaA","hanaU","hanaU06-detaU11","264","18","people children author function","hanaU"
"<h1>どちらの単語が聞こえましたか</h1>","601","1","iden_exp","hana","deta","1","U","7","U","7","hanaA","hanaU","hanaU07-detaU07","266","19","people children author function","hanaU"
"<h1>どちらの単語が聞こえましたか</h1>","574","0","iden_exp","hana","deta","1","A","7","U","6","hanaA","hanaU","hanaA07-detaU06","268","19","people children author function","hanaA"
"<h1>どちらの単語が聞こえましたか</h1>","560","0","iden_exp","hana","deta","1","U","11","A","6","hanaA","hanaU","hanaU11-detaA06","270","19","people children author function","hanaA"
"<h1>どちらの単語が聞こえましたか</h1>","496","0","iden_exp","hana","deta","1","U","11","A","3","hanaA","hanaU","hanaU11-detaA03","272","19","people children author function","hanaA"
"<h1>どちらの単語が聞こえましたか</h1>","542","0","iden_exp","hana","deta","1","A","6","A","6","hanaA","hanaU","hanaA06-detaA06","274","19","people children author function","hanaA"
"<h1>どちらの単語が聞こえましたか</h1>","677","1","iden_exp","hana","deta","1","U","7","U","1","hanaA","hanaU","hanaU07-detaU01","276","20","people children author function","hanaU"
"<h1>どちらの単語が聞こえましたか</h1>","1026","1","iden_exp","hana","deta","1","A","11","U","1","hanaA","hanaU","hanaA11-detaU01","278","20","people children author function","hanaU"
"<h1>どちらの単語が聞こえましたか</h1>","547","0","iden_exp","hana","deta","1","U","3","U","9","hanaA","hanaU","hanaU03-detaU09","280","20","people children author function","hanaA"
"<h1>どちらの単語が聞こえましたか</h1>","573","1","iden_exp","hana","deta","1","U","7","U","9","hanaA","hanaU","hanaU07-detaU09","282","20","people children author function","hanaU"
"<h1>どちらの単語が聞こえましたか</h1>","596","1","iden_exp","hana","deta","1","U","7","A","1","hanaA","hanaU","hanaU07-detaA01","284","20","people children author function","hanaU"
"<h1>どちらの単語が聞こえましたか</h1>","731","1","iden_exp","hana","deta","1","U","3","U","1","hanaA","hanaU","hanaU03-detaU01","286","20","people children author function","hanaU"
"<h1>どちらの単語が聞こえましたか</h1>","626","1","iden_exp","hana","deta","1","U","1","U","5","hanaA","hanaU","hanaU01-detaU05","288","20","people children author function","hanaU"
"<h1>どちらの単語が聞こえましたか</h1>","650","0","iden_exp","hana","deta","1","U","6","U","6","hanaA","hanaU","hanaU06-detaU06","290","20","people children author function","hanaA"
"<h1>どちらの単語が聞こえましたか</h1>","749","1","iden_exp","hana","deta","1","A","9","U","5","hanaA","hanaU","hanaA09-detaU05","292","20","people children author function","hanaU"
"<h1>どちらの単語が聞こえましたか</h1>","585","0","iden_exp","hana","deta","1","A","7","U","9","hanaA","hanaU","hanaA07-detaU09","294","20","people children author function","hanaA"
"<h1>どちらの単語が聞こえましたか</h1>","538","1","iden_exp","hana","deta","1","A","7","A","6","hanaA","hanaU","hanaA07-detaA06","296","20","people children author function","hanaU"
"<h1>どちらの単語が聞こえましたか</h1>","532","0","iden_exp","hana","deta","1","A","1","U","7","hanaA","hanaU","hanaA01-detaU07","298","20","people children author function","hanaA"
"<h1>どちらの単語が聞こえましたか</h1>","616","1","iden_exp","hana","deta","1","U","5","A","7","hanaA","hanaU","hanaU05-detaA07","300","20","people children author function","hanaU"
"<h1>どちらの単語が聞こえましたか</h1>","547","0","iden_exp","hana","deta","1","A","3","A","9","hanaA","hanaU","hanaA03-detaA09","302","20","people children author function","hanaA"
"<h1>どちらの単語が聞こえましたか</h1>","578","0","iden_exp","hana","deta","1","U","7","A","6","hanaA","hanaU","hanaU07-detaA06","304","21","people children author function","hanaA"
"<h1>どちらの単語が聞こえましたか</h1>","499","0","iden_exp","hana","deta","1","U","11","A","9","hanaA","hanaU","hanaU11-detaA09","306","21","people children author function","hanaA"
"<h1>どちらの単語が聞こえましたか</h1>","558","0","iden_exp","hana","deta","1","U","3","U","7","hanaA","hanaU","hanaU03-detaU07","308","21","people children author function","hanaA"
"<h1>どちらの単語が聞こえましたか</h1>","458","0","iden_exp","hana","deta","1","A","9","U","1","hanaA","hanaU","hanaA09-detaU01","310","21","people children author function","hanaA"
"<h1>どちらの単語が聞こえましたか</h1>","531","1","iden_exp","hana","deta","1","A","11","A","11","hanaA","hanaU","hanaA11-detaA11","312","21","people children author function","hanaU"
"<h1>どちらの単語が聞こえましたか</h1>","474","1","iden_exp","hana","deta","1","A","9","U","3","hanaA","hanaU","hanaA09-detaU03","314","21","people children author function","hanaU"
"<h1>どちらの単語が聞こえましたか</h1>","744","0","iden_exp","hana","deta","1","A","7","U","1","hanaA","hanaU","hanaA07-detaU01","316","21","people children author function","hanaA"
"<h1>どちらの単語が聞こえましたか</h1>","752","0","iden_exp","hana","deta","1","U","6","A","7","hanaA","hanaU","hanaU06-detaA07","318","21","people children author function","hanaA"
"<h1>どちらの単語が聞こえましたか</h1>","676","1","iden_exp","hana","deta","1","U","1","A","3","hanaA","hanaU","hanaU01-detaA03","320","21","people children author function","hanaU"
"<h1>どちらの単語が聞こえましたか</h1>","603","1","iden_exp","hana","deta","1","A","1","U","5","hanaA","hanaU","hanaA01-detaU05","322","21","people children author function","hanaU"
"<h1>どちらの単語が聞こえましたか</h1>","650","0","iden_exp","hana","deta","1","U","11","U","11","hanaA","hanaU","hanaU11-detaU11","324","21","people children author function","hanaA"
"<h1>どちらの単語が聞こえましたか</h1>","745","0","iden_exp","hana","deta","1","A","1","U","3","hanaA","hanaU","hanaA01-detaU03","326","21","people children author function","hanaA"
"<h1>どちらの単語が聞こえましたか</h1>","588","1","iden_exp","hana","deta","1","U","5","U","7","hanaA","hanaU","hanaU05-detaU07","328","21","people children author function","hanaU"
"<h1>どちらの単語が聞こえましたか</h1>","502","0","iden_exp","hana","deta","1","U","5","U","9","hanaA","hanaU","hanaU05-detaU09","330","21","people children author function","hanaA"
"<h1>どちらの単語が聞こえましたか</h1>","573","0","iden_exp","hana","deta","1","U","9","A","9","hanaA","hanaU","hanaU09-detaA09","332","21","people children author function","hanaA"
"<h1>どちらの単語が聞こえましたか</h1>","640","0","iden_exp","hana","deta","1","A","11","A","6","hanaA","hanaU","hanaA11-detaA06","334","21","people children author function","hanaA"
"<h1>どちらの単語が聞こえましたか</h1>","604","0","iden_exp","hana","deta","1","U","7","A","11","hanaA","hanaU","hanaU07-detaA11","336","22","people children author function","hanaA"
"<h1>どちらの単語が聞こえましたか</h1>","595","1","iden_exp","hana","deta","1","U","6","A","9","hanaA","hanaU","hanaU06-detaA09","338","22","people children author function","hanaU"
"<h1>どちらの単語が聞こえましたか</h1>","747","0","iden_exp","hana","deta","1","A","11","A","3","hanaA","hanaU","hanaA11-detaA03","340","22","people children author function","hanaA"
"<h1>どちらの単語が聞こえましたか</h1>","590","1","iden_exp","hana","deta","1","A","3","U","5","hanaA","hanaU","hanaA03-detaU05","342","22","people children author function","hanaU"
"<h1>どちらの単語が聞こえましたか</h1>","601","1","iden_exp","hana","deta","1","U","9","U","1","hanaA","hanaU","hanaU09-detaU01","344","22","people children author function","hanaU"
"<h1>どちらの単語が聞こえましたか</h1>","705","1","iden_exp","hana","deta","1","U","11","U","7","hanaA","hanaU","hanaU11-detaU07","346","22","people children author function","hanaU"
"<h1>どちらの単語が聞こえましたか</h1>","572","0","iden_exp","hana","deta","1","U","1","A","1","hanaA","hanaU","hanaU01-detaA01","348","22","people children author function","hanaA"
"<h1>どちらの単語が聞こえましたか</h1>","597","0","iden_exp","hana","deta","1","A","3","U","3","hanaA","hanaU","hanaA03-detaU03","350","22","people children author function","hanaA"
"<h1>どちらの単語が聞こえましたか</h1>","449","1","iden_exp","hana","deta","1","U","5","A","1","hanaA","hanaU","hanaU05-detaA01","352","22","people children author function","hanaU"
"<h1>どちらの単語が聞こえましたか</h1>","1199","1","iden_exp","hana","deta","1","A","1","A","5","hanaA","hanaU","hanaA01-detaA05","354","22","people children author function","hanaU"
"<h1>どちらの単語が聞こえましたか</h1>","470","0","iden_exp","hana","deta","1","U","7","U","5","hanaA","hanaU","hanaU07-detaU05","356","22","people children author function","hanaA"
"<h1>どちらの単語が聞こえましたか</h1>","529","1","iden_exp","hana","deta","1","U","11","A","11","hanaA","hanaU","hanaU11-detaA11","358","22","people children author function","hanaU"
"<h1>どちらの単語が聞こえましたか</h1>","552","0","iden_exp","hana","deta","1","U","1","U","11","hanaA","hanaU","hanaU01-detaU11","360","22","people children author function","hanaA"
"<h1>どちらの単語が聞こえましたか</h1>","560","1","iden_exp","hana","deta","1","A","11","A","1","hanaA","hanaU","hanaA11-detaA01","362","22","people children author function","hanaU"
"<h1>どちらの単語が聞こえましたか</h1>","675","0","iden_exp","hana","deta","1","U","5","A","9","hanaA","hanaU","hanaU05-detaA09","364","22","people children author function","hanaA"
"<h1>どちらの単語が聞こえましたか</h1>","672","1","iden_exp","hana","deta","1","A","3","A","11","hanaA","hanaU","hanaA03-detaA11","366","23","people children author function","hanaU"
"<h1>どちらの単語が聞こえましたか</h1>","647","0","iden_exp","hana","deta","1","A","9","A","5","hanaA","hanaU","hanaA09-detaA05","368","23","people children author function","hanaA"
"<h1>どちらの単語が聞こえましたか</h1>","582","0","iden_exp","hana","deta","1","A","1","U","1","hanaA","hanaU","hanaA01-detaU01","370","23","people children author function","hanaA"
"<h1>どちらの単語が聞こえましたか</h1>","513","0","iden_exp","hana","deta","1","A","9","A","3","hanaA","hanaU","hanaA09-detaA03","372","23","people children author function","hanaA"
"<h1>どちらの単語が聞こえましたか</h1>","564","1","iden_exp","hana","deta","1","U","3","U","3","hanaA","hanaU","hanaU03-detaU03","374","23","people children author function","hanaU"
"<h1>どちらの単語が聞こえましたか</h1>","504","1","iden_exp","hana","deta","1","U","6","U","5","hanaA","hanaU","hanaU06-detaU05","376","23","people children author function","hanaU"
"<h1>どちらの単語が聞こえましたか</h1>","421","1","iden_exp","hana","deta","1","U","1","A","6","hanaA","hanaU","hanaU01-detaA06","378","23","people children author function","hanaU"
"<h1>どちらの単語が聞こえましたか</h1>","573","0","iden_exp","hana","deta","1","U","11","U","6","hanaA","hanaU","hanaU11-detaU06","380","23","people children author function","hanaA"
"<h1>どちらの単語が聞こえましたか</h1>","516","1","iden_exp","hana","deta","1","A","5","A","1","hanaA","hanaU","hanaA05-detaA01","382","23","people children author function","hanaU"
"<h1>どちらの単語が聞こえましたか</h1>","663","1","iden_exp","hana","deta","1","A","1","A","1","hanaA","hanaU","hanaA01-detaA01","384","23","people children author function","hanaU"
"<h1>どちらの単語が聞こえましたか</h1>","602","1","iden_exp","hana","deta","1","U","9","U","6","hanaA","hanaU","hanaU09-detaU06","386","23","people children author function","hanaU"
"<h1>どちらの単語が聞こえましたか</h1>","502","0","iden_exp","hana","deta","1","A","9","A","7","hanaA","hanaU","hanaA09-detaA07","388","23","people children author function","hanaA"
"<h1>どちらの単語が聞こえましたか</h1>","589","1","iden_exp","hana","deta","1","U","5","U","6","hanaA","hanaU","hanaU05-detaU06","390","23","people children author function","hanaU"
"<h1>どちらの単語が聞こえましたか</h1>","613","0","iden_exp","hana","deta","1","A","3","U","11","hanaA","hanaU","hanaA03-detaU11","392","24","people children author function","hanaA"
"<h1>どちらの単語が聞こえましたか</h1>","503","0","iden_exp","hana","deta","1","U","11","A","1","hanaA","hanaU","hanaU11-detaA01","394","24","people children author function","hanaA"
"<h1>どちらの単語が聞こえましたか</h1>","589","0","iden_exp","hana","deta","1","A","1","U","11","hanaA","hanaU","hanaA01-detaU11","396","24","people children author function","hanaA"
"<h1>どちらの単語が聞こえましたか</h1>","690","0","iden_exp","hana","deta","1","A","9","A","6","hanaA","hanaU","hanaA09-detaA06","398","24","people children author function","hanaA"
"<h1>どちらの単語が聞こえましたか</h1>","725","0","iden_exp","hana","deta","1","A","9","A","1","hanaA","hanaU","hanaA09-detaA01","400","24","people children author function","hanaA"
"<h1>どちらの単語が聞こえましたか</h1>","567","1","iden_exp","hana","deta","1","U","6","U","1","hanaA","hanaU","hanaU06-detaU01","402","24","people children author function","hanaU"
"<h1>どちらの単語が聞こえましたか</h1>","808","0","iden_exp","hana","deta","1","U","11","A","7","hanaA","hanaU","hanaU11-detaA07","404","24","people children author function","hanaA"
"<h1>どちらの単語が聞こえましたか</h1>","757","0","iden_exp","hana","deta","1","U","1","U","9","hanaA","hanaU","hanaU01-detaU09","406","24","people children author function","hanaA"
"<h1>どちらの単語が聞こえましたか</h1>","454","1","iden_exp","hana","deta","1","U","1","A","9","hanaA","hanaU","hanaU01-detaA09","408","24","people children author function","hanaU"
"<h1>どちらの単語が聞こえましたか</h1>","594","1","iden_exp","hana","deta","1","A","3","U","7","hanaA","hanaU","hanaA03-detaU07","410","24","people children author function","hanaU"
"<h1>どちらの単語が聞こえましたか</h1>","1129","0","iden_exp","hana","deta","1","U","9","A","1","hanaA","hanaU","hanaU09-detaA01","412","25","people children author function","hanaA"
"<h1>どちらの単語が聞こえましたか</h1>","501","0","iden_exp","hana","deta","2","U","1","U","1","hanaU","hanaA","hanaU01-detaU01","415","25","people children author function","hanaA"
"<h1>どちらの単語が聞こえましたか</h1>","720","0","iden_exp","hana","deta","2","A","7","A","1","hanaU","hanaA","hanaA07-detaA01","417","25","people children author function","hanaA"
"<h1>どちらの単語が聞こえましたか</h1>","737","0","iden_exp","hana","deta","2","U","1","A","1","hanaU","hanaA","hanaU01-detaA01","419","25","people children author function","hanaA"
"<h1>どちらの単語が聞こえましたか</h1>","620","0","iden_exp","hana","deta","2","U","3","A","1","hanaU","hanaA","hanaU03-detaA01","421","25","people children author function","hanaA"
"<h1>どちらの単語が聞こえましたか</h1>","654","0","iden_exp","hana","deta","2","A","9","U","3","hanaU","hanaA","hanaA09-detaU03","423","25","people children author function","hanaA"
"<h1>どちらの単語が聞こえましたか</h1>","829","1","iden_exp","hana","deta","2","U","3","A","9","hanaU","hanaA","hanaU03-detaA09","425","26","people children author function","hanaU"
"<h1>どちらの単語が聞こえましたか</h1>","526","0","iden_exp","hana","deta","2","U","9","U","5","hanaU","hanaA","hanaU09-detaU05","427","26","people children author function","hanaA"
"<h1>どちらの単語が聞こえましたか</h1>","755","1","iden_exp","hana","deta","2","A","7","A","9","hanaU","hanaA","hanaA07-detaA09","429","26","people children author function","hanaU"
"<h1>どちらの単語が聞こえましたか</h1>","480","0","iden_exp","hana","deta","2","U","6","A","11","hanaU","hanaA","hanaU06-detaA11","431","26","people children author function","hanaA"
"<h1>どちらの単語が聞こえましたか</h1>","643","0","iden_exp","hana","deta","2","U","3","U","1","hanaU","hanaA","hanaU03-detaU01","433","26","people children author function","hanaA"
"<h1>どちらの単語が聞こえましたか</h1>","526","0","iden_exp","hana","deta","2","A","1","A","7","hanaU","hanaA","hanaA01-detaA07","435","26","people children author function","hanaA"
"<h1>どちらの単語が聞こえましたか</h1>","592","1","iden_exp","hana","deta","2","A","6","U","11","hanaU","hanaA","hanaA06-detaU11","437","26","people children author function","hanaU"
"<h1>どちらの単語が聞こえましたか</h1>","545","0","iden_exp","hana","deta","2","A","3","U","6","hanaU","hanaA","hanaA03-detaU06","439","26","people children author function","hanaA"
"<h1>どちらの単語が聞こえましたか</h1>","855","0","iden_exp","hana","deta","2","U","3","A","11","hanaU","hanaA","hanaU03-detaA11","441","26","people children author function","hanaA"
"<h1>どちらの単語が聞こえましたか</h1>","648","1","iden_exp","hana","deta","2","U","3","U","9","hanaU","hanaA","hanaU03-detaU09","443","26","people children author function","hanaU"
"<h1>どちらの単語が聞こえましたか</h1>","633","1","iden_exp","hana","deta","2","A","11","U","5","hanaU","hanaA","hanaA11-detaU05","445","26","people children author function","hanaU"
"<h1>どちらの単語が聞こえましたか</h1>","758","1","iden_exp","hana","deta","2","A","7","U","5","hanaU","hanaA","hanaA07-detaU05","447","26","people children author function","hanaU"
"<h1>どちらの単語が聞こえましたか</h1>","488","1","iden_exp","hana","deta","2","A","1","A","3","hanaU","hanaA","hanaA01-detaA03","449","26","people children author function","hanaU"
"<h1>どちらの単語が聞こえましたか</h1>","784","1","iden_exp","hana","deta","2","U","5","A","3","hanaU","hanaA","hanaU05-detaA03","451","26","people children author function","hanaU"
"<h1>どちらの単語が聞こえましたか</h1>","711","0","iden_exp","hana","deta","2","U","9","U","1","hanaU","hanaA","hanaU09-detaU01","453","26","people children author function","hanaA"
"<h1>どちらの単語が聞こえましたか</h1>","1032","0","iden_exp","hana","deta","2","A","11","U","3","hanaU","hanaA","hanaA11-detaU03","455","27","people children author function","hanaA"
"<h1>どちらの単語が聞こえましたか</h1>","592","0","iden_exp","hana","deta","2","A","6","U","6","hanaU","hanaA","hanaA06-detaU06","457","27","people children author function","hanaA"
"<h1>どちらの単語が聞こえましたか</h1>","463","1","iden_exp","hana","deta","2","A","6","A","5","hanaU","hanaA","hanaA06-detaA05","459","27","people children author function","hanaU"
"<h1>どちらの単語が聞こえましたか</h1>","1434","0","iden_exp","hana","deta","2","A","1","U","9","hanaU","hanaA","hanaA01-detaU09","461","27","people children author function","hanaA"
"<h1>どちらの単語が聞こえましたか</h1>","614","0","iden_exp","hana","deta","2","A","9","U","9","hanaU","hanaA","hanaA09-detaU09","463","27","people children author function","hanaA"
"<h1>どちらの単語が聞こえましたか</h1>","550","0","iden_exp","hana","deta","2","A","3","U","7","hanaU","hanaA","hanaA03-detaU07","465","27","people children author function","hanaA"
"<h1>どちらの単語が聞こえましたか</h1>","734","0","iden_exp","hana","deta","2","U","5","U","3","hanaU","hanaA","hanaU05-detaU03","467","27","people children author function","hanaA"
"<h1>どちらの単語が聞こえましたか</h1>","746","0","iden_exp","hana","deta","2","A","1","A","9","hanaU","hanaA","hanaA01-detaA09","469","27","people children author function","hanaA"
"<h1>どちらの単語が聞こえましたか</h1>","507","1","iden_exp","hana","deta","2","A","3","A","9","hanaU","hanaA","hanaA03-detaA09","471","27","people children author function","hanaU"
"<h1>どちらの単語が聞こえましたか</h1>","758","0","iden_exp","hana","deta","2","U","6","A","1","hanaU","hanaA","hanaU06-detaA01","473","27","people children author function","hanaA"
"<h1>どちらの単語が聞こえましたか</h1>","638","1","iden_exp","hana","deta","2","A","5","A","6","hanaU","hanaA","hanaA05-detaA06","475","27","people children author function","hanaU"
"<h1>どちらの単語が聞こえましたか</h1>","494","0","iden_exp","hana","deta","2","A","9","A","1","hanaU","hanaA","hanaA09-detaA01","477","27","people children author function","hanaA"
"<h1>どちらの単語が聞こえましたか</h1>","554","0","iden_exp","hana","deta","2","U","11","U","3","hanaU","hanaA","hanaU11-detaU03","479","27","people children author function","hanaA"
"<h1>どちらの単語が聞こえましたか</h1>","622","0","iden_exp","hana","deta","2","U","11","A","5","hanaU","hanaA","hanaU11-detaA05","481","27","people children author function","hanaA"
"<h1>どちらの単語が聞こえましたか</h1>","732","1","iden_exp","hana","deta","2","U","7","U","3","hanaU","hanaA","hanaU07-detaU03","483","28","people children author function","hanaU"
"<h1>どちらの単語が聞こえましたか</h1>","502","1","iden_exp","hana","deta","2","U","5","A","1","hanaU","hanaA","hanaU05-detaA01","485","28","people children author function","hanaU"
"<h1>どちらの単語が聞こえましたか</h1>","601","0","iden_exp","hana","deta","2","A","11","U","6","hanaU","hanaA","hanaA11-detaU06","487","28","people children author function","hanaA"
"<h1>どちらの単語が聞こえましたか</h1>","697","0","iden_exp","hana","deta","2","A","5","A","9","hanaU","hanaA","hanaA05-detaA09","489","28","people children author function","hanaA"
"<h1>どちらの単語が聞こえましたか</h1>","612","1","iden_exp","hana","deta","2","A","11","A","9","hanaU","hanaA","hanaA11-detaA09","491","28","people children author function","hanaU"
"<h1>どちらの単語が聞こえましたか</h1>","573","0","iden_exp","hana","deta","2","U","5","U","5","hanaU","hanaA","hanaU05-detaU05","493","28","people children author function","hanaA"
"<h1>どちらの単語が聞こえましたか</h1>","691","0","iden_exp","hana","deta","2","A","3","A","7","hanaU","hanaA","hanaA03-detaA07","495","28","people children author function","hanaA"
"<h1>どちらの単語が聞こえましたか</h1>","591","0","iden_exp","hana","deta","2","U","7","A","9","hanaU","hanaA","hanaU07-detaA09","497","28","people children author function","hanaA"
"<h1>どちらの単語が聞こえましたか</h1>","549","1","iden_exp","hana","deta","2","A","11","U","7","hanaU","hanaA","hanaA11-detaU07","499","28","people children author function","hanaU"
"<h1>どちらの単語が聞こえましたか</h1>","665","1","iden_exp","hana","deta","2","A","9","A","7","hanaU","hanaA","hanaA09-detaA07","501","28","people children author function","hanaU"
"<h1>どちらの単語が聞こえましたか</h1>","550","1","iden_exp","hana","deta","2","U","7","U","5","hanaU","hanaA","hanaU07-detaU05","503","28","people children author function","hanaU"
"<h1>どちらの単語が聞こえましたか</h1>","552","1","iden_exp","hana","deta","2","U","11","U","7","hanaU","hanaA","hanaU11-detaU07","505","28","people children author function","hanaU"
"<h1>どちらの単語が聞こえましたか</h1>","844","1","iden_exp","hana","deta","2","U","5","A","5","hanaU","hanaA","hanaU05-detaA05","507","28","people children author function","hanaU"
"<h1>どちらの単語が聞こえましたか</h1>","465","0","iden_exp","hana","deta","2","U","1","U","7","hanaU","hanaA","hanaU01-detaU07","509","28","people children author function","hanaA"
"<h1>どちらの単語が聞こえましたか</h1>","528","1","iden_exp","hana","deta","2","U","7","A","3","hanaU","hanaA","hanaU07-detaA03","511","29","people children author function","hanaU"
"<h1>どちらの単語が聞こえましたか</h1>","807","1","iden_exp","hana","deta","2","A","6","A","6","hanaU","hanaA","hanaA06-detaA06","513","29","people children author function","hanaU"
"<h1>どちらの単語が聞こえましたか</h1>","493","0","iden_exp","hana","deta","2","U","11","U","5","hanaU","hanaA","hanaU11-detaU05","515","29","people children author function","hanaA"
"<h1>どちらの単語が聞こえましたか</h1>","515","0","iden_exp","hana","deta","2","A","9","U","6","hanaU","hanaA","hanaA09-detaU06","517","29","people children author function","hanaA"
"<h1>どちらの単語が聞こえましたか</h1>","1034","1","iden_exp","hana","deta","2","A","6","A","3","hanaU","hanaA","hanaA06-detaA03","519","29","people children author function","hanaU"
"<h1>どちらの単語が聞こえましたか</h1>","742","1","iden_exp","hana","deta","2","U","1","U","9","hanaU","hanaA","hanaU01-detaU09","521","29","people children author function","hanaU"
"<h1>どちらの単語が聞こえましたか</h1>","631","0","iden_exp","hana","deta","2","U","7","U","1","hanaU","hanaA","hanaU07-detaU01","523","29","people children author function","hanaA"
"<h1>どちらの単語が聞こえましたか</h1>","1100","1","iden_exp","hana","deta","2","U","6","A","5","hanaU","hanaA","hanaU06-detaA05","525","29","people children author function","hanaU"
"<h1>どちらの単語が聞こえましたか</h1>","591","1","iden_exp","hana","deta","2","A","9","U","1","hanaU","hanaA","hanaA09-detaU01","527","30","people children author function","hanaU"
"<h1>どちらの単語が聞こえましたか</h1>","581","0","iden_exp","hana","deta","2","U","3","U","3","hanaU","hanaA","hanaU03-detaU03","529","30","people children author function","hanaA"
"<h1>どちらの単語が聞こえましたか</h1>","524","0","iden_exp","hana","deta","2","U","3","U","7","hanaU","hanaA","hanaU03-detaU07","531","30","people children author function","hanaA"
"<h1>どちらの単語が聞こえましたか</h1>","719","0","iden_exp","hana","deta","2","U","3","U","11","hanaU","hanaA","hanaU03-detaU11","533","30","people children author function","hanaA"
"<h1>どちらの単語が聞こえましたか</h1>","711","0","iden_exp","hana","deta","2","U","6","U","11","hanaU","hanaA","hanaU06-detaU11","535","30","people children author function","hanaA"
"<h1>どちらの単語が聞こえましたか</h1>","898","1","iden_exp","hana","deta","2","U","5","U","1","hanaU","hanaA","hanaU05-detaU01","537","30","people children author function","hanaU"
"<h1>どちらの単語が聞こえましたか</h1>","607","0","iden_exp","hana","deta","2","A","6","U","9","hanaU","hanaA","hanaA06-detaU09","539","30","people children author function","hanaA"
"<h1>どちらの単語が聞こえましたか</h1>","622","0","iden_exp","hana","deta","2","A","3","A","11","hanaU","hanaA","hanaA03-detaA11","541","30","people children author function","hanaA"
"<h1>どちらの単語が聞こえましたか</h1>","552","0","iden_exp","hana","deta","2","U","6","U","1","hanaU","hanaA","hanaU06-detaU01","543","32","people children author function","hanaA"
"<h1>どちらの単語が聞こえましたか</h1>","624","1","iden_exp","hana","deta","2","U","9","A","6","hanaU","hanaA","hanaU09-detaA06","545","32","people children author function","hanaU"
"<h1>どちらの単語が聞こえましたか</h1>","587","0","iden_exp","hana","deta","2","U","11","A","3","hanaU","hanaA","hanaU11-detaA03","547","32","people children author function","hanaA"
"<h1>どちらの単語が聞こえましたか</h1>","574","1","iden_exp","hana","deta","2","U","1","A","7","hanaU","hanaA","hanaU01-detaA07","549","32","people children author function","hanaU"
"<h1>どちらの単語が聞こえましたか</h1>","768","1","iden_exp","hana","deta","2","U","7","A","11","hanaU","hanaA","hanaU07-detaA11","551","33","people children author function","hanaU"
"<h1>どちらの単語が聞こえましたか</h1>","606","1","iden_exp","hana","deta","2","U","6","A","3","hanaU","hanaA","hanaU06-detaA03","553","33","people children author function","hanaU"
"<h1>どちらの単語が聞こえましたか</h1>","664","0","iden_exp","hana","deta","2","A","5","U","9","hanaU","hanaA","hanaA05-detaU09","555","33","people children author function","hanaA"
"<h1>どちらの単語が聞こえましたか</h1>","485","1","iden_exp","hana","deta","2","U","3","A","7","hanaU","hanaA","hanaU03-detaA07","557","33","people children author function","hanaU"
"<h1>どちらの単語が聞こえましたか</h1>","567","0","iden_exp","hana","deta","2","U","7","U","11","hanaU","hanaA","hanaU07-detaU11","559","33","people children author function","hanaA"
"<h1>どちらの単語が聞こえましたか</h1>","651","1","iden_exp","hana","deta","2","A","5","U","3","hanaU","hanaA","hanaA05-detaU03","561","33","people children author function","hanaU"
"<h1>どちらの単語が聞こえましたか</h1>","521","1","iden_exp","hana","deta","2","U","1","A","9","hanaU","hanaA","hanaU01-detaA09","563","34","people children author function","hanaU"
"<h1>どちらの単語が聞こえましたか</h1>","635","1","iden_exp","hana","deta","2","A","3","A","3","hanaU","hanaA","hanaA03-detaA03","565","34","people children author function","hanaU"
"<h1>どちらの単語が聞こえましたか</h1>","783","1","iden_exp","hana","deta","2","A","5","U","7","hanaU","hanaA","hanaA05-detaU07","567","34","people children author function","hanaU"
"<h1>どちらの単語が聞こえましたか</h1>","761","0","iden_exp","hana","deta","2","U","9","U","11","hanaU","hanaA","hanaU09-detaU11","569","34","people children author function","hanaA"
"<h1>どちらの単語が聞こえましたか</h1>","649","0","iden_exp","hana","deta","2","U","1","U","5","hanaU","hanaA","hanaU01-detaU05","571","34","people children author function","hanaA"
"<h1>どちらの単語が聞こえましたか</h1>","911","1","iden_exp","hana","deta","2","A","1","U","11","hanaU","hanaA","hanaA01-detaU11","573","34","people children author function","hanaU"
"<h1>どちらの単語が聞こえましたか</h1>","647","1","iden_exp","hana","deta","2","A","6","U","7","hanaU","hanaA","hanaA06-detaU07","575","34","people children author function","hanaU"
"<h1>どちらの単語が聞こえましたか</h1>","513","1","iden_exp","hana","deta","2","A","5","U","1","hanaU","hanaA","hanaA05-detaU01","577","34","people children author function","hanaU"
"<h1>どちらの単語が聞こえましたか</h1>","560","1","iden_exp","hana","deta","2","U","9","U","7","hanaU","hanaA","hanaU09-detaU07","579","35","people children author function","hanaU"
"<h1>どちらの単語が聞こえましたか</h1>","555","0","iden_exp","hana","deta","2","A","7","U","7","hanaU","hanaA","hanaA07-detaU07","581","35","people children author function","hanaA"
"<h1>どちらの単語が聞こえましたか</h1>","636","0","iden_exp","hana","deta","2","U","11","U","6","hanaU","hanaA","hanaU11-detaU06","583","35","people children author function","hanaA"
"<h1>どちらの単語が聞こえましたか</h1>","436","0","iden_exp","hana","deta","2","A","6","A","11","hanaU","hanaA","hanaA06-detaA11","585","35","people children author function","hanaA"
"<h1>どちらの単語が聞こえましたか</h1>","693","0","iden_exp","hana","deta","2","A","11","A","1","hanaU","hanaA","hanaA11-detaA01","587","35","people children author function","hanaA"
"<h1>どちらの単語が聞こえましたか</h1>","649","1","iden_exp","hana","deta","2","U","7","A","5","hanaU","hanaA","hanaU07-detaA05","589","35","people children author function","hanaU"
"<h1>どちらの単語が聞こえましたか</h1>","695","0","iden_exp","hana","deta","2","U","6","A","9","hanaU","hanaA","hanaU06-detaA09","591","35","people children author function","hanaA"
"<h1>どちらの単語が聞こえましたか</h1>","435","1","iden_exp","hana","deta","2","A","5","U","11","hanaU","hanaA","hanaA05-detaU11","593","35","people children author function","hanaU"
"<h1>どちらの単語が聞こえましたか</h1>","860","1","iden_exp","hana","deta","2","A","9","A","5","hanaU","hanaA","hanaA09-detaA05","595","35","people children author function","hanaU"
"<h1>どちらの単語が聞こえましたか</h1>","545","0","iden_exp","hana","deta","2","U","3","A","5","hanaU","hanaA","hanaU03-detaA05","597","35","people children author function","hanaA"
"<h1>どちらの単語が聞こえましたか</h1>","493","0","iden_exp","hana","deta","2","A","6","A","1","hanaU","hanaA","hanaA06-detaA01","599","35","people children author function","hanaA"
"<h1>どちらの単語が聞こえましたか</h1>","608","0","iden_exp","hana","deta","2","A","1","A","6","hanaU","hanaA","hanaA01-detaA06","601","35","people children author function","hanaA"
"<h1>どちらの単語が聞こえましたか</h1>","652","0","iden_exp","hana","deta","2","U","5","A","9","hanaU","hanaA","hanaU05-detaA09","603","35","people children author function","hanaA"
"<h1>どちらの単語が聞こえましたか</h1>","551","0","iden_exp","hana","deta","2","U","1","U","3","hanaU","hanaA","hanaU01-detaU03","605","35","people children author function","hanaA"
"<h1>どちらの単語が聞こえましたか</h1>","678","1","iden_exp","hana","deta","2","A","7","A","11","hanaU","hanaA","hanaA07-detaA11","607","35","people children author function","hanaU"
"<h1>どちらの単語が聞こえましたか</h1>","591","1","iden_exp","hana","deta","2","U","5","U","7","hanaU","hanaA","hanaU05-detaU07","609","36","people children author function","hanaU"
"<h1>どちらの単語が聞こえましたか</h1>","639","1","iden_exp","hana","deta","2","U","6","U","6","hanaU","hanaA","hanaU06-detaU06","611","36","people children author function","hanaU"
"<h1>どちらの単語が聞こえましたか</h1>","531","1","iden_exp","hana","deta","2","U","11","U","11","hanaU","hanaA","hanaU11-detaU11","613","36","people children author function","hanaU"
"<h1>どちらの単語が聞こえましたか</h1>","674","1","iden_exp","hana","deta","2","A","5","A","1","hanaU","hanaA","hanaA05-detaA01","615","36","people children author function","hanaU"
"<h1>どちらの単語が聞こえましたか</h1>","480","1","iden_exp","hana","deta","2","U","1","A","11","hanaU","hanaA","hanaU01-detaA11","617","36","people children author function","hanaU"
"<h1>どちらの単語が聞こえましたか</h1>","561","1","iden_exp","hana","deta","2","A","11","A","7","hanaU","hanaA","hanaA11-detaA07","619","36","people children author function","hanaU"
"<h1>どちらの単語が聞こえましたか</h1>","977","0","iden_exp","hana","deta","2","A","7","A","6","hanaU","hanaA","hanaA07-detaA06","621","36","people children author function","hanaA"
"<h1>どちらの単語が聞こえましたか</h1>","540","1","iden_exp","hana","deta","2","A","1","U","7","hanaU","hanaA","hanaA01-detaU07","623","36","people children author function","hanaU"
"<h1>どちらの単語が聞こえましたか</h1>","458","1","iden_exp","hana","deta","2","A","7","A","7","hanaU","hanaA","hanaA07-detaA07","625","36","people children author function","hanaU"
"<h1>どちらの単語が聞こえましたか</h1>","730","0","iden_exp","hana","deta","2","A","5","U","6","hanaU","hanaA","hanaA05-detaU06","627","36","people children author function","hanaA"
"<h1>どちらの単語が聞こえましたか</h1>","556","0","iden_exp","hana","deta","2","A","3","A","5","hanaU","hanaA","hanaA03-detaA05","629","36","people children author function","hanaA"
"<h1>どちらの単語が聞こえましたか</h1>","648","1","iden_exp","hana","deta","2","A","3","U","11","hanaU","hanaA","hanaA03-detaU11","631","36","people children author function","hanaU"
"<h1>どちらの単語が聞こえましたか</h1>","654","0","iden_exp","hana","deta","2","A","6","A","9","hanaU","hanaA","hanaA06-detaA09","633","36","people children author function","hanaA"
"<h1>どちらの単語が聞こえましたか</h1>","549","0","iden_exp","hana","deta","2","U","6","A","6","hanaU","hanaA","hanaU06-detaA06","635","36","people children author function","hanaA"
"<h1>どちらの単語が聞こえましたか</h1>","601","0","iden_exp","hana","deta","2","A","11","A","5","hanaU","hanaA","hanaA11-detaA05","637","36","people children author function","hanaA"
"<h1>どちらの単語が聞こえましたか</h1>","560","1","iden_exp","hana","deta","2","U","6","U","7","hanaU","hanaA","hanaU06-detaU07","639","36","people children author function","hanaU"
"<h1>どちらの単語が聞こえましたか</h1>","897","1","iden_exp","hana","deta","2","U","5","U","9","hanaU","hanaA","hanaU05-detaU09","641","37","people children author function","hanaU"
"<h1>どちらの単語が聞こえましたか</h1>","486","1","iden_exp","hana","deta","2","U","1","A","3","hanaU","hanaA","hanaU01-detaA03","643","37","people children author function","hanaU"
"<h1>どちらの単語が聞こえましたか</h1>","580","0","iden_exp","hana","deta","2","A","7","U","1","hanaU","hanaA","hanaA07-detaU01","645","37","people children author function","hanaA"
"<h1>どちらの単語が聞こえましたか</h1>","473","0","iden_exp","hana","deta","2","A","5","A","11","hanaU","hanaA","hanaA05-detaA11","647","37","people children author function","hanaA"
"<h1>どちらの単語が聞こえましたか</h1>","466","1","iden_exp","hana","deta","2","U","11","A","6","hanaU","hanaA","hanaU11-detaA06","649","37","people children author function","hanaU"
"<h1>どちらの単語が聞こえましたか</h1>","747","1","iden_exp","hana","deta","2","U","6","U","5","hanaU","hanaA","hanaU06-detaU05","651","37","people children author function","hanaU"
"<h1>どちらの単語が聞こえましたか</h1>","782","0","iden_exp","hana","deta","2","U","6","A","7","hanaU","hanaA","hanaU06-detaA07","653","37","people children author function","hanaA"
"<h1>どちらの単語が聞こえましたか</h1>","494","1","iden_exp","hana","deta","2","A","7","U","6","hanaU","hanaA","hanaA07-detaU06","655","37","people children author function","hanaU"
"<h1>どちらの単語が聞こえましたか</h1>","1155","1","iden_exp","hana","deta","2","A","6","U","5","hanaU","hanaA","hanaA06-detaU05","657","37","people children author function","hanaU"
"<h1>どちらの単語が聞こえましたか</h1>","712","0","iden_exp","hana","deta","2","A","6","A","7","hanaU","hanaA","hanaA06-detaA07","659","37","people children author function","hanaA"
"<h1>どちらの単語が聞こえましたか</h1>","835","1","iden_exp","hana","deta","2","A","6","U","1","hanaU","hanaA","hanaA06-detaU01","661","37","people children author function","hanaU"
"<h1>どちらの単語が聞こえましたか</h1>","650","1","iden_exp","hana","deta","2","A","9","U","7","hanaU","hanaA","hanaA09-detaU07","663","37","people children author function","hanaU"
"<h1>どちらの単語が聞こえましたか</h1>","662","1","iden_exp","hana","deta","2","A","9","A","3","hanaU","hanaA","hanaA09-detaA03","665","37","people children author function","hanaU"
"<h1>どちらの単語が聞こえましたか</h1>","710","0","iden_exp","hana","deta","2","A","3","U","9","hanaU","hanaA","hanaA03-detaU09","667","37","people children author function","hanaA"
"<h1>どちらの単語が聞こえましたか</h1>","596","1","iden_exp","hana","deta","2","A","3","U","3","hanaU","hanaA","hanaA03-detaU03","669","37","people children author function","hanaU"
"<h1>どちらの単語が聞こえましたか</h1>","530","0","iden_exp","hana","deta","2","A","5","A","7","hanaU","hanaA","hanaA05-detaA07","671","37","people children author function","hanaA"
"<h1>どちらの単語が聞こえましたか</h1>","460","0","iden_exp","hana","deta","2","U","9","A","7","hanaU","hanaA","hanaU09-detaA07","673","38","people children author function","hanaA"
"<h1>どちらの単語が聞こえましたか</h1>","602","1","iden_exp","hana","deta","2","U","11","A","11","hanaU","hanaA","hanaU11-detaA11","675","38","people children author function","hanaU"
"<h1>どちらの単語が聞こえましたか</h1>","586","1","iden_exp","hana","deta","2","A","1","U","6","hanaU","hanaA","hanaA01-detaU06","677","38","people children author function","hanaU"
"<h1>どちらの単語が聞こえましたか</h1>","838","0","iden_exp","hana","deta","2","A","1","U","5","hanaU","hanaA","hanaA01-detaU05","679","38","people children author function","hanaA"
"<h1>どちらの単語が聞こえましたか</h1>","575","0","iden_exp","hana","deta","2","U","9","A","1","hanaU","hanaA","hanaU09-detaA01","681","38","people children author function","hanaA"
"<h1>どちらの単語が聞こえましたか</h1>","649","0","iden_exp","hana","deta","2","U","1","A","6","hanaU","hanaA","hanaU01-detaA06","683","38","people children author function","hanaA"
"<h1>どちらの単語が聞こえましたか</h1>","784","0","iden_exp","hana","deta","2","A","11","A","3","hanaU","hanaA","hanaA11-detaA03","685","38","people children author function","hanaA"
"<h1>どちらの単語が聞こえましたか</h1>","552","1","iden_exp","hana","deta","2","U","9","U","3","hanaU","hanaA","hanaU09-detaU03","687","38","people children author function","hanaU"
"<h1>どちらの単語が聞こえましたか</h1>","564","0","iden_exp","hana","deta","2","U","11","A","7","hanaU","hanaA","hanaU11-detaA07","689","38","people children author function","hanaA"
"<h1>どちらの単語が聞こえましたか</h1>","480","0","iden_exp","hana","deta","2","A","7","A","5","hanaU","hanaA","hanaA07-detaA05","691","38","people children author function","hanaA"
"<h1>どちらの単語が聞こえましたか</h1>","620","0","iden_exp","hana","deta","2","U","11","U","9","hanaU","hanaA","hanaU11-detaU09","693","38","people children author function","hanaA"
"<h1>どちらの単語が聞こえましたか</h1>","614","0","iden_exp","hana","deta","2","A","6","U","3","hanaU","hanaA","hanaA06-detaU03","695","38","people children author function","hanaA"
"<h1>どちらの単語が聞こえましたか</h1>","652","1","iden_exp","hana","deta","2","A","7","U","11","hanaU","hanaA","hanaA07-detaU11","697","38","people children author function","hanaU"
"<h1>どちらの単語が聞こえましたか</h1>","630","1","iden_exp","hana","deta","2","U","3","U","5","hanaU","hanaA","hanaU03-detaU05","699","38","people children author function","hanaU"
"<h1>どちらの単語が聞こえましたか</h1>","574","1","iden_exp","hana","deta","2","U","1","U","6","hanaU","hanaA","hanaU01-detaU06","701","38","people children author function","hanaU"
"<h1>どちらの単語が聞こえましたか</h1>","748","0","iden_exp","hana","deta","2","A","5","U","5","hanaU","hanaA","hanaA05-detaU05","703","38","people children author function","hanaA"
"<h1>どちらの単語が聞こえましたか</h1>","601","0","iden_exp","hana","deta","2","U","9","A","9","hanaU","hanaA","hanaU09-detaA09","705","39","people children author function","hanaA"
"<h1>どちらの単語が聞こえましたか</h1>","395","1","iden_exp","hana","deta","2","U","11","A","9","hanaU","hanaA","hanaU11-detaA09","707","39","people children author function","hanaU"
"<h1>どちらの単語が聞こえましたか</h1>","1354","0","iden_exp","hana","deta","2","U","3","A","6","hanaU","hanaA","hanaU03-detaA06","709","39","people children author function","hanaA"
"<h1>どちらの単語が聞こえましたか</h1>","823","0","iden_exp","hana","deta","2","A","3","U","1","hanaU","hanaA","hanaA03-detaU01","711","39","people children author function","hanaA"
"<h1>どちらの単語が聞こえましたか</h1>","593","1","iden_exp","hana","deta","2","A","9","A","11","hanaU","hanaA","hanaA09-detaA11","713","39","people children author function","hanaU"
"<h1>どちらの単語が聞こえましたか</h1>","791","0","iden_exp","hana","deta","2","U","7","U","9","hanaU","hanaA","hanaU07-detaU09","715","39","people children author function","hanaA"
"<h1>どちらの単語が聞こえましたか</h1>","552","0","iden_exp","hana","deta","2","A","7","U","9","hanaU","hanaA","hanaA07-detaU09","717","39","people children author function","hanaA"
"<h1>どちらの単語が聞こえましたか</h1>","654","1","iden_exp","hana","deta","2","U","1","A","5","hanaU","hanaA","hanaU01-detaA05","719","39","people children author function","hanaU"
"<h1>どちらの単語が聞こえましたか</h1>","819","1","iden_exp","hana","deta","2","U","9","U","6","hanaU","hanaA","hanaU09-detaU06","721","39","people children author function","hanaU"
"<h1>どちらの単語が聞こえましたか</h1>","527","0","iden_exp","hana","deta","2","U","5","U","11","hanaU","hanaA","hanaU05-detaU11","723","39","people children author function","hanaA"
"<h1>どちらの単語が聞こえましたか</h1>","531","1","iden_exp","hana","deta","2","A","7","U","3","hanaU","hanaA","hanaA07-detaU03","725","39","people children author function","hanaU"
"<h1>どちらの単語が聞こえましたか</h1>","777","1","iden_exp","hana","deta","2","A","1","A","5","hanaU","hanaA","hanaA01-detaA05","727","39","people children author function","hanaU"
"<h1>どちらの単語が聞こえましたか</h1>","882","0","iden_exp","hana","deta","2","A","11","A","6","hanaU","hanaA","hanaA11-detaA06","729","39","people children author function","hanaA"
"<h1>どちらの単語が聞こえましたか</h1>","578","0","iden_exp","hana","deta","2","U","3","U","6","hanaU","hanaA","hanaU03-detaU06","731","39","people children author function","hanaA"
"<h1>どちらの単語が聞こえましたか</h1>","693","1","iden_exp","hana","deta","2","U","7","U","7","hanaU","hanaA","hanaU07-detaU07","733","39","people children author function","hanaU"
"<h1>どちらの単語が聞こえましたか</h1>","634","1","iden_exp","hana","deta","2","U","9","A","5","hanaU","hanaA","hanaU09-detaA05","735","39","people children author function","hanaU"
"<h1>どちらの単語が聞こえましたか</h1>","620","0","iden_exp","hana","deta","2","U","9","U","9","hanaU","hanaA","hanaU09-detaU09","737","40","people children author function","hanaA"
"<h1>どちらの単語が聞こえましたか</h1>","657","1","iden_exp","hana","deta","2","A","9","A","9","hanaU","hanaA","hanaA09-detaA09","739","40","people children author function","hanaU"
"<h1>どちらの単語が聞こえましたか</h1>","563","0","iden_exp","hana","deta","2","A","5","A","5","hanaU","hanaA","hanaA05-detaA05","741","40","people children author function","hanaA"
"<h1>どちらの単語が聞こえましたか</h1>","701","1","iden_exp","hana","deta","2","U","9","A","11","hanaU","hanaA","hanaU09-detaA11","743","40","people children author function","hanaU"
"<h1>どちらの単語が聞こえましたか</h1>","882","0","iden_exp","hana","deta","2","U","6","U","3","hanaU","hanaA","hanaU06-detaU03","745","40","people children author function","hanaA"
"<h1>どちらの単語が聞こえましたか</h1>","731","0","iden_exp","hana","deta","2","A","1","A","1","hanaU","hanaA","hanaA01-detaA01","747","40","people children author function","hanaA"
"<h1>どちらの単語が聞こえましたか</h1>","580","0","iden_exp","hana","deta","2","A","3","U","5","hanaU","hanaA","hanaA03-detaU05","749","40","people children author function","hanaA"
"<h1>どちらの単語が聞こえましたか</h1>","480","0","iden_exp","hana","deta","2","U","9","A","3","hanaU","hanaA","hanaU09-detaA03","751","40","people children author function","hanaA"
"<h1>どちらの単語が聞こえましたか</h1>","537","1","iden_exp","hana","deta","2","U","3","A","3","hanaU","hanaA","hanaU03-detaA03","753","40","people children author function","hanaU"
"<h1>どちらの単語が聞こえましたか</h1>","678","0","iden_exp","hana","deta","2","U","11","U","1","hanaU","hanaA","hanaU11-detaU01","755","40","people children author function","hanaA"
"<h1>どちらの単語が聞こえましたか</h1>","556","1","iden_exp","hana","deta","2","U","7","U","6","hanaU","hanaA","hanaU07-detaU06","757","40","people children author function","hanaU"
"<h1>どちらの単語が聞こえましたか</h1>","482","0","iden_exp","hana","deta","2","A","3","A","6","hanaU","hanaA","hanaA03-detaA06","759","40","people children author function","hanaA"
"<h1>どちらの単語が聞こえましたか</h1>","764","1","iden_exp","hana","deta","2","U","7","A","1","hanaU","hanaA","hanaU07-detaA01","761","40","people children author function","hanaU"
"<h1>どちらの単語が聞こえましたか</h1>","740","1","iden_exp","hana","deta","2","U","5","A","7","hanaU","hanaA","hanaU05-detaA07","763","40","people children author function","hanaU"
"<h1>どちらの単語が聞こえましたか</h1>","568","1","iden_exp","hana","deta","2","A","11","A","11","hanaU","hanaA","hanaA11-detaA11","765","41","people children author function","hanaU"
"<h1>どちらの単語が聞こえましたか</h1>","752","1","iden_exp","hana","deta","2","A","5","A","3","hanaU","hanaA","hanaA05-detaA03","767","41","people children author function","hanaU"
"<h1>どちらの単語が聞こえましたか</h1>","637","0","iden_exp","hana","deta","2","A","7","A","3","hanaU","hanaA","hanaA07-detaA03","769","41","people children author function","hanaA"
"<h1>どちらの単語が聞こえましたか</h1>","628","0","iden_exp","hana","deta","2","U","5","A","11","hanaU","hanaA","hanaU05-detaA11","771","41","people children author function","hanaA"
"<h1>どちらの単語が聞こえましたか</h1>","530","0","iden_exp","hana","deta","2","U","7","A","7","hanaU","hanaA","hanaU07-detaA07","773","41","people children author function","hanaA"
"<h1>どちらの単語が聞こえましたか</h1>","483","1","iden_exp","hana","deta","2","A","1","U","1","hanaU","hanaA","hanaA01-detaU01","775","41","people children author function","hanaU"
"<h1>どちらの単語が聞こえましたか</h1>","775","0","iden_exp","hana","deta","2","U","7","A","6","hanaU","hanaA","hanaU07-detaA06","777","41","people children author function","hanaA"
"<h1>どちらの単語が聞こえましたか</h1>","508","1","iden_exp","hana","deta","2","U","5","U","6","hanaU","hanaA","hanaU05-detaU06","779","41","people children author function","hanaU"
"<h1>どちらの単語が聞こえましたか</h1>","555","1","iden_exp","hana","deta","2","U","6","U","9","hanaU","hanaA","hanaU06-detaU09","781","41","people children author function","hanaU"
"<h1>どちらの単語が聞こえましたか</h1>","541","0","iden_exp","hana","deta","2","A","1","U","3","hanaU","hanaA","hanaA01-detaU03","783","41","people children author function","hanaA"
"<h1>どちらの単語が聞こえましたか</h1>","676","0","iden_exp","hana","deta","2","A","9","A","6","hanaU","hanaA","hanaA09-detaA06","785","41","people children author function","hanaA"
"<h1>どちらの単語が聞こえましたか</h1>","618","1","iden_exp","hana","deta","2","A","9","U","5","hanaU","hanaA","hanaA09-detaU05","787","41","people children author function","hanaU"
"<h1>どちらの単語が聞こえましたか</h1>","591","1","iden_exp","hana","deta","2","A","1","A","11","hanaU","hanaA","hanaA01-detaA11","789","41","people children author function","hanaU"
"<h1>どちらの単語が聞こえましたか</h1>","978","0","iden_exp","hana","deta","2","U","11","A","1","hanaU","hanaA","hanaU11-detaA01","791","41","people children author function","hanaA"
"<h1>どちらの単語が聞こえましたか</h1>","1244","0","iden_exp","hana","deta","2","A","9","U","11","hanaU","hanaA","hanaA09-detaU11","793","42","people children author function","hanaA"
"<h1>どちらの単語が聞こえましたか</h1>","549","0","iden_exp","hana","deta","2","A","11","U","9","hanaU","hanaA","hanaA11-detaU09","795","42","people children author function","hanaA"
"<h1>どちらの単語が聞こえましたか</h1>","460","1","iden_exp","hana","deta","2","A","11","U","1","hanaU","hanaA","hanaA11-detaU01","797","42","people children author function","hanaU"
"<h1>どちらの単語が聞こえましたか</h1>","407","1","iden_exp","hana","deta","2","A","11","U","11","hanaU","hanaA","hanaA11-detaU11","799","42","people children author function","hanaU"
"<h1>どちらの単語が聞こえましたか</h1>","512","0","iden_exp","hana","deta","2","U","5","A","6","hanaU","hanaA","hanaU05-detaA06","801","42","people children author function","hanaA"
"<h1>どちらの単語が聞こえましたか</h1>","640","0","iden_exp","hana","deta","2","A","3","A","1","hanaU","hanaA","hanaA03-detaA01","803","42","people children author function","hanaA"
"<h1>どちらの単語が聞こえましたか</h1>","597","0","iden_exp","hana","deta","2","U","1","U","11","hanaU","hanaA","hanaU01-detaU11","805","42","people children author function","hanaA"
